"Time (s)","Linear Acceleration x (m/s^2)","Linear Acceleration y (m/s^2)","Linear Acceleration z (m/s^2)","Absolute acceleration (m/s^2)"
1.045220834E-2,3.460434848E-1,2.507768467E-1,-5.861827844E-1,7.254277200E-1
2.053220835E-2,7.528307694E-1,-1.770607066E-1,-6.625485903E-1,1.018368939E0
3.061220836E-2,6.376102155E-1,-3.271207255E-1,-7.440570223E-1,1.033041920E0
4.069220833E-2,2.954656541E-1,-2.873295459E-1,-4.394860840E-1,6.024999907E-1
5.077220834E-2,-6.864631176E-2,-1.146443108E-1,2.854376793E-1,3.151671031E-1
6.085120834E-2,-1.822144425E-1,1.438575849E-1,9.170176613E-1,9.459484653E-1
7.093120835E-2,-1.970745564E-1,2.543117809E-1,9.852049667E-1,1.036408071E0
8.101120836E-2,-2.277326775E-1,1.719552103E-1,5.809781778E-1,6.472761465E-1
9.109120833E-2,-2.685555983E-1,9.577593058E-2,2.156043828E-1,3.574638277E-1
1.011712083E-1,-1.810268730E-1,8.434462398E-2,1.362132275E-1,2.417411585E-1
1.112512083E-1,-6.940411091E-2,1.222258106E-1,1.556154585E-1,2.096956135E-1
1.213312084E-1,-9.205330074E-2,1.287723532E-1,1.408196640E-1,2.118638877E-1
1.314112083E-1,-2.136666155E-1,1.419627947E-1,2.063581806E-1,3.292272108E-1
1.414912083E-1,-3.312915444E-1,1.382623842E-1,1.701761949E-1,3.972788839E-1
1.515712083E-1,-2.910673785E-1,2.710798413E-2,2.570950556E-1,3.892979954E-1
1.616512084E-1,-1.646821511E-1,-1.984603465E-2,6.460097408E-1,6.669652624E-1
1.717312083E-1,-9.459450066E-2,1.527014986E-1,5.194502664E-1,5.496311913E-1
1.818112083E-1,-8.483081996E-2,8.501763850E-2,4.805616045E-1,4.953420259E-1
1.918912083E-1,-3.863723159E-2,7.034902096E-2,8.355068904E-1,8.393530749E-1
2.019702083E-1,-4.123339534E-2,4.400526792E-2,1.645880109E0,1.646984514E0
2.120502084E-1,-1.007527882E-1,3.200473487E-3,2.218428941E0,2.220717977E0
2.221302083E-1,-6.589110374E-2,-1.968204948E-1,2.406019313E0,2.414955254E0
2.322102083E-1,3.065209848E-1,1.639626512E-1,2.857126154E0,2.878195394E0
2.422902083E-1,4.926477993E-1,2.553215951E-1,3.742220356E0,3.783134173E0
2.523702084E-1,-4.078023612E-2,-5.554729155E-1,2.529410182E0,2.590005609E0
2.624537084E-1,-5.634388697E-1,-1.431964402E0,1.803135712E0,2.370502859E0
2.725337083E-1,-7.788304138E-1,-1.689431048E0,9.769492829E-1,2.101233919E0
2.826137083E-1,-7.975479358E-1,-1.594842395E0,5.069582748E-1,1.853810041E0
2.926937084E-1,-6.536105365E-1,-1.511767201E0,2.877452829E-1,1.671958179E0
3.027737084E-1,-4.184793770E-1,-1.426274184E0,-1.740435433E-1,1.496554106E0
3.128537083E-1,-1.909431660E-1,-1.320044602E0,-5.682207227E-2,1.334992805E0
3.229337083E-1,-1.965360278E-1,-1.158325235E0,3.928603864E-1,1.238823249E0
3.330127083E-1,-4.424745959E-1,-9.478511989E-1,4.074822262E-1,1.122607424E0
3.430927084E-1,-9.629124570E-1,-1.119224319E0,2.110827309E-1,1.491448757E0
3.531727084E-1,-1.658881978E0,-2.408157640E0,3.686555448E-1,2.947375026E0
3.632527083E-1,-1.549437888E0,-3.700794003E0,3.468670651E-2,4.012211010E0
3.733327083E-1,-1.119893240E0,-3.919861107E0,-5.852501535E-1,4.118493621E0
3.834127084E-1,-1.260248635E0,-4.015703403E0,-4.810708970E-1,4.236216432E0
3.934927084E-1,-1.427085485E0,-4.642028493E0,-6.284559609E-1,4.896933572E0
4.035727083E-1,-1.526075923E0,-5.803755637E0,-1.223471988E0,6.124489442E0
4.136527083E-1,-2.144974464E0,-6.606597642E0,-8.432029957E-1,6.997073613E0
4.237327084E-1,-2.338158867E0,-6.924414863E0,-4.918503121E-1,7.325054595E0
4.338127084E-1,-2.173583136E0,-7.387818398E0,1.287580276E-1,7.702006424E0
4.438927083E-1,-2.102866325E0,-6.680204732E0,9.941645090E-1,7.073580784E0
4.539727083E-1,-1.479423913E0,-4.710940853E0,1.847932985E0,5.272240050E0
4.640517083E-1,-1.594477236E-2,-1.924443802E0,2.142163415E0,2.879687878E0
4.741317084E-1,2.749154393E0,2.610606372E-1,1.750447913E0,3.269567315E0
4.842117084E-1,5.296816658E0,3.350934041E0,9.430930272E-1,6.338331808E0
4.942917083E-1,6.325720206E0,8.385988396E0,-3.158015393E0,1.096870998E1
5.043717083E-1,4.987405395E0,9.037935984E0,-1.023483881E1,1.453652038E1
5.144517084E-1,-1.155795144E0,5.550611545E0,-1.220319637E1,1.345597089E1
5.245317084E-1,-5.452251438E0,4.548769496E0,-6.580482223E0,9.680965652E0
5.346117083E-1,-6.702294928E0,6.405953361E0,-8.753764227E-1,9.312533471E0
5.446917083E-1,-6.791335158E0,6.862774685E0,9.849912509E-1,9.705159317E0
5.547717084E-1,-5.416030861E0,6.158636604E0,-8.455711180E-1,8.244827810E0
5.648517084E-1,-1.717789167E0,3.914992130E0,-2.508144735E0,4.956687706E0
5.749317083E-1,3.801280743E-1,3.389635007E0,-1.980995440E0,3.944422108E0
5.850117083E-1,4.462606680E-1,2.268130274E0,-4.395349082E-1,2.353030909E0
5.950907083E-1,7.639931041E-1,1.928774250E-1,1.145104388E0,1.390018425E0
6.051707084E-1,7.819990200E-1,-2.220427519E-1,2.020594246E0,2.177986813E0
6.152507084E-1,-2.931519109E-1,3.917885917E-1,1.855096116E0,1.918545789E0
6.253307083E-1,-2.944944316E-1,7.477928084E-1,1.095301021E0,1.358530596E0
6.354107083E-1,1.444809566E0,-6.715685052E-1,7.165996671E-2,1.594871182E0
6.454907084E-1,1.568888066E0,-6.965647674E-1,-1.843665102E-1,1.726442368E0
6.555707084E-1,1.018318918E0,-3.759478998E-1,1.032145537E0,1.497876715E0
6.656507083E-1,1.037273253E0,-8.314161783E-1,1.345233530E0,1.891254058E0
6.757307083E-1,1.069535265E0,-1.574987297E0,6.004002893E-1,1.996239258E0
6.858107084E-1,1.909538080E0,-1.221645902E0,-1.889811328E-1,2.274745756E0
6.958907084E-1,7.056992877E-1,-4.270981729E-1,-7.509994215E-1,1.115537747E0
7.059707083E-1,2.651893562E-1,1.047445069E0,-3.929296759E-1,1.149721835E0
7.160507083E-1,6.177267587E-1,9.926987582E-1,-4.077927133E-1,1.238277865E0
7.261297083E-1,8.745025563E-1,6.254649639E-2,5.607742935E-2,8.785280094E-1
7.362097084E-1,-1.455688895E0,5.730031604E-1,-6.448601782E-2,1.565733447E0
7.462897084E-1,-1.912097406E0,6.600687861E-2,1.412339392E-1,1.918442186E0
7.563697083E-1,-5.271533883E-1,-3.342227536E-1,-1.272837983E0,1.417643141E0
7.664497083E-1,1.356303186E0,2.968046665E-2,-2.432821780E0,2.785509124E0
7.765297084E-1,4.212296734E0,-1.574042972E0,-1.280015148E0,4.675413760E0
7.866097084E-1,7.445260275E0,-3.942147185E0,7.494646735E-1,8.457784715E0
7.966897083E-1,9.870784146E0,-5.834941177E0,3.193857655E0,1.190292590E1
8.067697083E-1,8.637609288E0,-5.713248925E0,3.956579575E0,1.108620897E1
8.168497084E-1,5.670039171E0,-3.329816236E0,-7.002841812E-1,6.612671042E0
8.269297084E-1,-3.055142112E0,2.132963113E0,-1.235815694E1,1.290765153E1
8.370097083E-1,-1.721608101E1,1.152552045E1,-1.001321998E1,2.301077229E1
8.470887083E-1,-1.481197490E1,6.790397850E0,2.053719015E-1,1.629559085E1
8.571687083E-1,-1.033402396E0,-4.362314653E0,2.943325807E0,5.362916785E0
8.672487084E-1,1.704128317E0,-3.536158630E0,5.675601043E0,6.900791141E0
8.773287084E-1,-2.444468265E0,-3.041953132E0,6.056858214E0,7.205167269E0
8.874087083E-1,-5.337294593E0,-1.523355213E0,-3.170214146E0,6.391993618E0
8.974887083E-1,-2.990537980E0,6.001266396E-1,-3.812593936E0,4.882554855E0
9.075687084E-1,-8.962249625E-1,-1.414137411E0,2.427401558E0,2.948776377E0
9.176487084E-1,-9.853961706E-1,-1.147358782E0,1.357543673E0,2.032329356E0
9.277287083E-1,1.552562640E0,-1.228110584E0,1.919722760E-1,1.988858897E0
9.378087083E-1,4.528539884E0,-3.384767784E0,-1.300370475E0,5.801317937E0
9.478887084E-1,3.014175349E0,-3.294062852E0,-1.940012598E-1,4.469198988E0
9.579687084E-1,-1.256001218E0,-5.359183645E-1,1.139775528E0,1.778717461E0
9.680477084E-1,-2.459797325E0,-7.888303220E-2,9.389739561E-1,2.634102789E0
9.781277083E-1,-2.052524722E0,-1.900383094E0,5.570396769E-1,2.852123216E0
9.882077083E-1,-2.019065784E0,-3.706630109E0,1.063710269E0,4.352839641E0
9.982877084E-1,-1.782487439E0,-5.759825506E0,1.279648966E0,6.163631463E0
1.008367708E0,-9.331665015E-1,-7.354050143E0,4.384616518E-1,7.425974808E0
1.018447708E0,-1.158207706E0,-6.468333212E0,-5.051890536E-1,6.590599032E0
1.028527708E0,-1.308540205E0,-4.506893492E0,-4.608937638E-1,4.715590045E0
1.038607708E0,-8.715666693E-1,-2.088466972E0,1.061261601E0,2.499519741E0
1.048687708E0,-2.448176569E-1,8.584273911E-1,5.747554247E-1,1.061685956E0
1.058767708E0,8.029747367E-2,2.608605455E0,-3.565612224E0,4.418694450E0
1.068847708E0,-8.787838876E-2,4.013828201E0,-5.558141005E-1,4.053081390E0
1.078926708E0,-6.971021265E-1,3.832154042E0,3.269108105E0,5.085117872E0
1.089006708E0,-1.294575884E0,2.167428941E0,3.579128648E0,4.379935709E0
1.099086708E0,-1.997925761E0,5.487132418E-1,2.303831180E0,3.098456337E0
1.109166708E0,-2.849603126E0,2.244804561E-1,1.318610280E0,3.147913995E0
1.119246708E0,-3.016421265E0,-4.890143394E-2,4.996574414E-1,3.057915329E0
1.129326708E0,-2.508585908E0,7.299897909E-2,-4.499502611E-1,2.549664163E0
1.139406708E0,-2.354286073E0,-3.708456194E-1,-7.110461278E-1,2.487122028E0
1.149486708E0,-1.586168928E0,-2.268781069E0,-8.015772521E-1,2.881982911E0
1.159566708E0,-1.087024579E0,-3.582684340E0,-5.855938967E-1,3.789481459E0
1.169646708E0,-1.362287811E0,-4.251366659E0,-5.107050975E-1,4.493413652E0
1.179726708E0,-1.821755877E0,-4.654860792E0,-2.778129832E-1,5.006366300E0
1.189806708E0,-2.085149846E0,-4.413820437E0,4.222262728E-1,4.899789358E0
1.199885708E0,-2.728723637E0,-4.145676482E0,1.089774817E0,5.081355659E0
1.209965708E0,-2.632659439E0,-4.597488497E0,6.410326640E-1,5.336545613E0
1.220045708E0,2.682784987E0,-6.326754579E0,-1.815152324E0,7.107737808E0
1.230125708E0,7.972049382E0,-6.476458502E0,-2.902468972E0,1.067344425E1
1.240205708E0,-8.906186521E-1,-1.341684562E0,6.863579408E-1,1.750544564E0
1.250285708E0,-4.449413900E-1,2.115426729E0,-4.824840959E-1,2.214902704E0
1.260362000E0,6.031611983E-1,3.604757579E0,-1.843042374E-1,3.659514816E0
1.270442000E0,6.219396776E-1,3.792958986E0,1.145691741E0,4.010730157E0
1.280522000E0,1.172552387E0,4.245523537E0,1.750096203E0,4.739428860E0
1.290602000E0,1.584796878E0,5.673828167E0,1.396971155E0,6.054373264E0
1.300682000E0,2.087887220E0,8.601919638E0,1.201343200E0,8.932833816E0
1.310761000E0,2.295706912E0,1.159838962E1,1.377080097E0,1.190332985E1
1.320841000E0,2.305105288E0,1.418984753E1,1.045668100E0,1.441383728E1
1.330921000E0,1.636816632E0,1.573203312E1,-1.479941793E-1,1.581764638E1
1.341001000E0,-5.321935420E-1,1.152228226E1,-2.559430372E0,1.181511330E1
1.351081000E0,-8.676114665E-1,3.691475880E-1,-3.560487725E0,3.683217674E0
1.361161000E0,-9.321148798E-2,-2.775263380E0,-1.523735282E0,3.167419205E0
1.371241000E0,4.955325231E-2,-2.203569412E0,7.265902197E-1,2.320798790E0
1.381321000E0,4.263902944E-1,-1.466194587E0,1.581108162E0,2.198053292E0
1.391401000E0,1.439135720E-1,-5.493669605E-1,1.231601372E0,1.356229004E0
1.401481000E0,1.582819350E-2,-5.414872527E-2,5.243502331E-1,5.273763202E-1
1.411561000E0,8.142730191E-2,-1.223050404E-1,3.578694785E-1,3.868584909E-1
1.421641000E0,-1.128413949E-1,1.000481987E-1,3.275621903E-1,3.606103312E-1
1.431720000E0,-1.516107005E-1,1.516247338E-1,1.517714989E-1,2.626984056E-1
1.441800000E0,6.385671124E-2,4.886167288E-2,-1.913922322E-1,2.075960722E-1
1.451880000E0,1.749088582E-1,1.657592082E-1,-6.640612650E-1,7.064322950E-1
1.461960000E0,1.444512235E-1,2.490375924E-1,-8.080185449E-1,8.577761056E-1
1.472040000E0,1.880797845E-1,2.564319813E-1,-6.966676784E-1,7.658180074E-1
1.482120000E0,1.153209798E-1,1.271295780E-1,-6.538789237E-1,6.760314377E-1
1.492200000E0,6.764263719E-2,7.552088320E-2,-6.107364124E-1,6.190944157E-1
1.502280000E0,-4.008617163E-2,7.346792579E-2,-7.007700849E-1,7.057500614E-1
1.512360000E0,-8.035645746E-2,-6.378727555E-3,-7.585844296E-1,7.628552846E-1
1.522440000E0,1.207442723E-1,-1.920126218E-1,-6.926389468E-1,7.288324477E-1
1.532520000E0,4.730113142E-1,-3.043955219E-1,-6.020977360E-1,8.239648177E-1
1.542599000E0,1.051584751E0,-5.298928088E-1,-2.422302639E-1,1.202203136E0
1.552679000E0,1.551530607E0,-7.122698039E-1,1.354887666E-1,1.712580714E0
1.562759000E0,1.962733709E0,-5.682686698E-1,1.657597929E-1,2.050055902E0
1.572839000E0,2.228876600E0,-2.856744915E-1,-6.603260636E-2,2.248079428E0
1.582919000E0,2.306130451E0,-1.465481812E-1,-3.268821591E-1,2.333787902E0
1.592999000E0,2.265298760E0,-1.869968802E-1,-4.259059256E-1,2.312561818E0
1.603079000E0,2.119781589E0,-1.531169432E-1,-4.191038597E-1,2.166233327E0
1.613159000E0,1.924022510E0,-2.652694631E-1,-4.360806656E-1,1.990577015E0
1.623239000E0,1.720642608E0,-5.499066585E-1,-5.445336521E-1,1.886670405E0
1.633319000E0,1.740372576E0,-6.162708020E-1,-7.019465446E-1,1.975200080E0
1.643399000E0,1.625034785E0,-1.056603563E-1,-9.058494794E-1,1.863455243E0
1.653478000E0,1.374872919E0,-6.646120727E-2,-1.074849799E0,1.746423410E0
1.663558000E0,1.266398737E0,-4.064499003E-1,-1.172552095E0,1.773089309E0
1.673638000E0,1.197037603E0,-5.487857473E-1,-1.039711542E0,1.677815517E0
1.683718000E0,1.185334693E0,-5.166365862E-1,-5.230620915E-1,1.394821010E0
1.693798000E0,1.080934485E0,-6.489736944E-1,-2.035778479E-1,1.277117910E0
1.703878000E0,9.192321481E-1,-5.867511338E-1,-1.680491606E-2,1.090663578E0
1.713958000E0,9.467029519E-1,-7.496674258E-1,2.091022789E-2,1.207760310E0
1.724038000E0,9.836933883E-1,-8.947877169E-1,-1.297660510E-1,1.336090180E0
1.734118000E0,1.039502504E0,-7.633990270E-1,-2.560969359E-1,1.314887512E0
1.744198000E0,1.087793488E0,-2.786777133E-1,-3.031833941E-1,1.163132027E0
1.754278000E0,1.082812903E0,2.597023290E-1,-4.349597909E-1,1.195457696E0
1.764357000E0,9.677580446E-1,7.045719445E-1,-4.820731097E-1,1.290492829E0
1.774437000E0,9.629579191E-1,8.956969589E-1,-2.526681286E-1,1.339179667E0
1.784517000E0,9.080021319E-1,1.003943539E0,-2.582820769E-1,1.378071163E0
1.794597000E0,8.891649612E-1,1.225148385E0,-4.138111062E-3,1.513809769E0
1.804677000E0,8.560675279E-1,1.546379210E0,5.883093802E-1,1.862860220E0
1.814757000E0,6.368858186E-1,1.853667349E0,8.418359166E-1,2.133165230E0
1.824837000E0,6.084469351E-1,1.629603800E0,7.145853013E-1,1.880544700E0
1.834917000E0,4.074843458E-1,1.497732714E0,4.426973748E-1,1.614071789E0
1.844997000E0,4.490149259E-1,1.319762766E0,1.674981701E-1,1.404081123E0
1.855077000E0,1.582289885E0,1.797083259E-2,-7.985191584E-2,1.584405427E0
1.865157000E0,2.767059737E0,-8.431930554E-1,-2.861687640E-2,2.892820949E0
1.875236000E0,2.720240496E0,-1.766554946E-1,4.185435137E-2,2.726291861E0
1.885316000E0,1.783439804E0,1.599517536E-1,-3.951279366E-1,1.833676140E0
1.895396000E0,5.943649395E-1,3.327071553E-1,-8.367780751E-1,1.078963058E0
1.905476000E0,-9.315878995E-2,3.989479226E-1,-9.997645336E-1,1.080447652E0
1.915556000E0,-3.381178033E-1,2.504619741E-1,-8.376130575E-1,9.373635813E-1
1.925636000E0,-2.451395461E-1,2.181151772E-1,-4.224016893E-1,5.348745785E-1
1.935716000E0,6.589673169E-2,1.244766963E-1,-1.060772810E-1,1.763213450E-1
1.945796000E0,2.268710902E-1,-1.527971005E-1,1.030349382E-1,2.922903420E-1
1.955876000E0,1.782011329E-1,-3.576455301E-1,5.310546505E-1,6.645938691E-1
1.965956000E0,6.529008307E-2,-2.911164951E-1,7.625950348E-1,8.188789873E-1
1.976036000E0,-2.576253249E-1,-1.115017247E-1,6.833471364E-1,7.387602801E-1
1.986115000E0,-4.727411728E-1,2.775673270E-2,3.998098022E-1,6.197600589E-1
1.996195000E0,-4.174318483E-1,3.912255049E-2,1.364237273E-1,4.408983503E-1
2.006275000E0,-3.300636292E-1,1.627636796E-1,-1.116315512E-1,3.845719931E-1
2.016355000E0,-2.514930575E-1,2.956714761E-1,-3.108759910E-1,4.973070094E-1
2.026435000E0,-2.675648972E-1,4.518511909E-1,-3.604703200E-1,6.369453073E-1
2.036515000E0,-3.671131224E-1,5.043404764E-1,-2.220871907E-1,6.621586525E-1
2.046595000E0,-4.537251505E-1,4.637350720E-1,-2.737531883E-1,7.041715254E-1
2.056675000E0,-5.808614527E-1,4.304211456E-1,-4.605372298E-1,8.571796369E-1
2.066755000E0,-7.054898112E-1,3.655381018E-1,-5.404476178E-1,9.609462030E-1
2.076835000E0,-7.802579384E-1,2.400825816E-1,-5.305763483E-1,9.736289631E-1
2.086915000E0,-8.352529751E-1,4.043174207E-2,-5.055876875E-1,9.771904461E-1
2.096994000E0,-8.376158349E-1,-7.589042723E-2,-5.351500038E-1,9.968676795E-1
2.107074000E0,-8.417169258E-1,-1.601833034E-1,-6.210900041E-1,1.058252743E0
2.117154000E0,-7.783809091E-1,-1.679413891E-1,-7.538499391E-1,1.096526735E0
2.127234000E0,-6.951688908E-1,-8.863034070E-2,-7.707331165E-1,1.041702770E0
2.137314000E0,-6.385613383E-1,-1.691599488E-2,-8.105772865E-1,1.032028232E0
2.147394000E0,-5.905773325E-1,-1.313693941E-2,-9.088444964E-1,1.083952251E0
2.157474000E0,-5.335265610E-1,8.144703627E-2,-9.771703076E-1,1.116309106E0
2.167554000E0,-5.645525085E-1,1.976902682E-1,-7.025241765E-1,9.226815244E-1
2.177634000E0,-6.411944126E-1,3.720302653E-1,-3.298051822E-1,8.113619730E-1
2.187714000E0,-7.211637112E-1,4.692823255E-1,-1.214550014E-1,8.689386151E-1
2.197794000E0,-7.553215371E-1,3.555446255E-1,-4.001615122E-2,8.357774210E-1
2.207873000E0,-7.418887286E-1,1.292608881E-1,1.948724949E-1,7.778705240E-1
2.217953000E0,-7.051662409E-1,-1.318371713E-2,5.035633814E-1,8.666079372E-1
2.228033000E0,-6.772287561E-1,-1.578602046E-1,7.461865783E-1,1.019976981E0
2.238113000E0,-6.505437449E-1,-8.816373289E-2,7.700069654E-1,1.011874861E0
2.248193000E0,-6.742197789E-1,2.495182335E-2,6.156580138E-1,9.133617541E-1
2.258273208E0,-5.657675964E-1,2.189758873E-1,1.173441164E-1,6.179102314E-1
2.268353208E0,-1.593056363E-1,4.690794271E-1,-6.710194516E-1,8.340748762E-1
2.278433208E0,5.785111644E-1,5.396266687E-1,-1.507888159E0,1.702820838E0
2.288513208E0,1.242436262E0,5.151192337E-1,-1.450318081E0,1.977983374E0
2.298593208E0,1.662404633E0,5.405891204E-1,-4.813638425E-1,1.813156615E0
2.308673208E0,1.970088044E0,6.253088433E-1,4.308672881E-1,2.111375066E0
2.318752208E0,2.166707395E0,6.177571642E-1,7.358628805E-1,2.370177003E0
2.328832208E0,2.300078291E0,5.207425010E-1,6.754142189E-1,2.453103598E0
2.338912208E0,2.203267549E0,4.824064010E-1,4.806500436E-1,2.306106739E0
2.348992208E0,1.774007222E0,1.080512828E-1,3.923822303E-1,1.820093547E0
2.359072208E0,8.448814389E-1,-5.580237633E-1,6.283381395E-1,1.191647592E0
2.369152208E0,-4.329000726E-2,-9.525430048E-1,4.370686989E-1,1.048923852E0
2.379232208E0,-6.710931265E-1,-1.058903857E0,-2.886770368E-2,1.253984333E0
2.389312208E0,-1.277172378E0,-1.335179535E0,-3.136763687E-1,1.874104196E0
2.399392208E0,-1.710205913E0,-1.596583403E0,-6.682478714E-1,2.433195029E0
2.409472208E0,-1.976966270E0,-1.773651127E0,-1.084426077E0,2.868834932E0
2.419551208E0,-2.013410065E0,-1.814312664E0,-1.432461708E0,3.065533735E0
2.429631208E0,-1.608723246E0,-1.754297428E0,-1.698454764E0,2.924089351E0
2.439711208E0,-7.803419191E-1,-1.841523267E0,-1.734615992E0,2.647458044E0
2.449791208E0,-3.767361045E-2,-1.901677083E0,-1.607571345E0,2.490397690E0
2.459871208E0,4.775346471E-1,-1.906974660E0,-1.169077387E0,2.287210885E0
2.469951208E0,1.036461367E0,-1.811022436E0,-6.950548701E-1,2.199353473E0
2.480031208E0,1.601675305E0,-1.525818645E0,-8.246969967E-1,2.360849732E0
2.490111208E0,1.993215244E0,-1.418340390E0,-1.187857474E0,2.719485585E0
2.500191208E0,2.033557377E0,-1.789653202E0,-1.143505905E0,2.940377517E0
2.510271208E0,1.805965618E0,-2.689650788E0,-5.774172235E-1,3.290766449E0
2.520351208E0,1.733859508E0,-3.528299387E0,-1.761111188E-1,3.935248466E0
2.530430208E0,1.740162807E0,-4.059927065E0,-2.479943030E-1,4.424101665E0
2.540510208E0,1.748669482E0,-4.134870243E0,-6.603000435E-1,4.537729943E0
2.550590208E0,1.783434249E0,-3.879458016E0,-1.168231441E0,4.426691419E0
2.560670208E0,1.849229897E0,-3.258510611E0,-1.182033063E0,3.928707774E0
2.570750208E0,1.776676915E0,-2.606269493E0,-8.139157543E-1,3.257557426E0
2.580830208E0,1.642254835E0,-1.977901386E0,-9.391540504E-1,2.736988339E0
2.590910208E0,1.502769360E0,-1.081408036E0,-1.608555870E0,2.452592725E0
2.600990208E0,1.203333154E0,8.712175906E-2,-1.718280187E0,2.099544637E0
2.611070208E0,6.549629974E-1,1.673407046E0,-1.106798401E0,2.110514243E0
2.621150208E0,6.690413386E-2,3.889411731E0,-4.365366022E-1,3.914404678E0
2.631230208E0,-3.121438135E-1,6.864763323E0,-2.296856475E-1,6.875693764E0
2.641309208E0,-6.284974761E-1,1.011595205E1,-1.721455371E-1,1.013691911E1
2.651389208E0,-1.221801438E0,1.138226951E1,2.724553987E-1,1.145089909E1
2.661469208E0,-2.145250891E0,6.766088635E0,9.118963775E-1,7.156368619E0
2.671549208E0,-2.873236110E0,-5.037341201E-1,1.063221149E0,3.104782282E0
2.681629208E0,-3.261572213E0,-3.622016221E0,1.241020944E0,5.029611097E0
2.691709208E0,-3.589444598E0,-3.981926377E0,1.889130274E0,5.684071023E0
2.701789208E0,-3.672218075E0,-2.514824887E0,2.886346737E0,5.304764584E0
2.711869208E0,-3.532082536E0,-6.747967529E-1,3.681468955E0,5.146277428E0
2.721949208E0,-3.323612925E0,5.245537162E-3,3.926086053E0,5.143985039E0
2.732029208E0,-3.129414030E0,1.067029148E-1,3.742054296E0,4.879302003E0
2.742108208E0,-2.964134001E0,2.082865924E-1,3.063592508E0,4.267911988E0
2.752188208E0,-2.646920505E0,6.350848031E-1,2.307105474E0,3.568228768E0
2.762268208E0,-2.055670231E0,1.468370921E0,1.723261138E0,3.058025868E0
2.772348208E0,-1.108469097E0,2.102372235E0,1.291560037E0,2.704958425E0
2.782428208E0,-7.662556842E-3,2.066038806E0,1.356175278E0,2.471393625E0
2.792508208E0,7.781255320E-1,1.466830180E0,1.986234984E0,2.588860663E0
2.802588208E0,1.111444014E0,7.911990291E-1,2.566970941E0,2.906999056E0
2.812668208E0,1.090804146E0,1.721993315E-1,2.678859751E0,2.897549976E0
2.822748208E0,8.424229040E-1,-2.175614458E-1,2.427548761E0,2.578759842E0
2.832828208E0,3.841621415E-1,-5.320814216E-1,1.971908136E0,2.078247552E0
2.842908208E0,3.359510444E-2,-5.681640047E-1,1.492817399E0,1.597636615E0
2.852987208E0,-1.557361304E-1,-6.134214538E-1,1.139198992E0,1.303193756E0
2.863067208E0,-8.174100503E-2,-5.300325572E-1,8.771454978E-1,1.028105212E0
2.873147208E0,1.501423185E-1,-3.580402172E-1,6.188587797E-1,7.305625928E-1
2.883227208E0,3.422948349E-1,-1.722823620E-2,6.727174830E-1,7.549909788E-1
2.893307208E0,4.617447529E-1,4.274045670E-1,7.681113712E-1,9.929138730E-1
2.903387208E0,4.872652911E-1,5.566403121E-1,7.956751458E-1,1.086450569E0
2.913467208E0,4.764071578E-1,5.961347455E-1,8.515113775E-1,1.143421200E0
2.923547208E0,4.424161237E-1,4.045618343E-1,6.413062406E-1,8.778815401E-1
2.933627208E0,4.190485304E-1,2.114844346E-1,4.890201867E-1,6.778407482E-1
2.943707208E0,4.135438885E-1,6.548881531E-2,2.787777738E-1,5.030152878E-1
2.953787208E0,5.279957528E-1,-6.973623276E-2,2.432441711E-3,5.325866820E-1
2.963866208E0,7.688585722E-1,7.906897366E-2,5.830620524E-2,7.751096827E-1
2.973946208E0,9.249603729E-1,2.450842899E-1,3.724500954E-1,1.026809171E0
2.984026208E0,9.680984987E-1,2.759359539E-1,5.772464848E-1,1.160417536E0
2.994106208E0,9.314916397E-1,1.012562335E-2,5.853098317E-1,1.100166716E0
3.004186208E0,8.253093463E-1,-2.739648575E-1,4.671048224E-1,9.871064661E-1
3.014266208E0,6.914537162E-1,-4.322963476E-1,3.469503880E-1,8.862070556E-1
3.024346208E0,4.290602792E-1,-4.156955177E-1,7.186699469E-2,6.017145100E-1
3.034426208E0,3.589824960E-2,-4.120339912E-1,-3.601732814E-1,5.484391369E-1
3.044506208E0,-1.654980569E-1,-3.216775525E-1,-6.719608533E-1,7.631496859E-1
3.054586208E0,-1.033607925E-1,-4.244219023E-1,-9.178736937E-1,1.016518333E0
3.064665208E0,1.722567073E-1,-2.802576309E-1,-8.415324461E-1,9.035450021E-1
3.074745208E0,3.470720100E-1,1.330416977E-2,-4.281495023E-1,5.513147716E-1
3.084825208E0,3.697967020E-1,1.126594734E-1,8.962263146E-2,3.968299055E-1
3.094905208E0,4.080477981E-1,9.193869531E-2,3.241474164E-1,5.291760357E-1
3.104985208E0,4.515111753E-1,-2.119440258E-2,4.774310052E-1,6.574586747E-1
3.115065208E0,5.098584207E-1,-9.090783119E-2,6.831641185E-1,8.572823664E-1
3.125145208E0,4.977838473E-1,-1.884733021E-1,8.295959401E-1,9.856674734E-1
3.135225208E0,3.982950810E-1,-3.102965319E-1,8.643178761E-1,1.000983666E0
3.145305208E0,2.361577843E-1,-3.205975717E-1,7.738801610E-1,8.703124759E-1
3.155385208E0,-2.143538095E-2,-4.084455550E-1,4.756043351E-1,6.272852066E-1
3.165465208E0,-2.665826015E-1,-3.080675733E-1,1.364938939E-1,4.296539261E-1
3.175544208E0,-4.944143893E-1,-1.420236057E-1,-2.100577140E-1,5.556442532E-1
3.185624208E0,-7.693588015E-1,-3.375714540E-2,-7.790865219E-1,1.095458041E0
3.195704208E0,-8.719802868E-1,2.420098239E-1,-1.399240460E0,1.666370979E0
3.205784208E0,-6.784221728E-1,4.314157569E-1,-1.893507353E0,2.057120875E0
3.215864208E0,-3.170362519E-1,4.255071455E-1,-1.541756986E0,1.630516151E0
3.225944208E0,7.223496728E-2,4.800224912E-1,-7.218586528E-1,8.698961991E-1
3.236024208E0,3.801299746E-1,5.479554427E-1,1.024747932E-1,6.747259058E-1
3.246104208E0,5.429972231E-1,2.364403510E-1,9.284776193E-1,1.101281396E0
3.256183958E0,6.876391388E-1,-1.156813145E-2,1.620373385E0,1.760281601E0
3.266263958E0,8.209954899E-1,-1.301502496E-1,1.986792077E0,2.153674869E0
3.276343958E0,9.933589820E-1,-1.800310922E-1,2.008255452E0,2.247724009E0
3.286422958E0,1.124002810E0,-2.891541696E-1,1.600806262E0,1.977264054E0
3.296502958E0,1.196194361E0,-2.661944926E-1,8.605627942E-1,1.497434066E0
3.306582958E0,1.155343812E0,-5.123213410E-2,-7.313638866E-2,1.158789449E0
3.316662958E0,9.711193165E-1,1.947806937E-1,-8.239668256E-1,1.288384095E0
3.326742958E0,6.570109847E-1,3.636664081E-1,-1.144901782E0,1.369202973E0
3.336822958E0,3.823447537E-1,3.545681405E-1,-1.076279444E0,1.195944613E0
3.346902958E0,1.990925767E-1,1.782073456E-1,-7.927421824E-1,8.365619402E-1
3.356982958E0,1.646735264E-1,-6.823759139E-2,-6.430586511E-1,6.673066521E-1
3.367062958E0,2.574556826E-1,-2.595011848E-1,-5.424771863E-1,6.541450841E-1
3.377142958E0,4.426488429E-1,-3.054971373E-1,-5.326274785E-1,7.569402419E-1
3.387221958E0,6.266237359E-1,-3.055965400E-1,-3.977059740E-1,8.026310443E-1
3.397301958E0,8.633133245E-1,-2.066049331E-1,-1.882370746E-1,9.074297167E-1
3.407381958E0,1.015794383E0,-1.821606481E-1,-2.827333421E-1,1.070027510E0
3.417461958E0,1.144940373E0,-4.020182955E-1,-6.179490260E-1,1.361751874E0
3.427541958E0,1.118470978E0,-6.010604399E-1,-9.818779740E-1,1.605096675E0
3.437621958E0,1.023279111E0,-5.699134916E-1,-1.342292819E0,1.781474541E0
3.447701958E0,9.994881796E-1,-3.880422807E-1,-1.701301188E0,2.010964735E0
3.457781958E0,1.025961083E0,-7.262709618E-2,-2.027845379E0,2.273769495E0
3.467861958E0,1.166046702E0,2.950721365E-1,-2.218925369E0,2.523957661E0
3.477941958E0,1.609035634E0,6.434527534E-1,-2.528980996E0,3.065741671E0
3.488021958E0,2.282886892E0,1.164527961E0,-2.682962742E0,3.710254305E0
3.498100958E0,2.632494547E0,1.721658854E0,-2.100251450E0,3.782220631E0
3.508180958E0,2.698298820E0,2.001396668E0,-6.504641497E-1,3.421915948E0
3.518260958E0,2.778162138E0,1.966181227E0,8.811601230E-1,3.515749798E0
3.528340958E0,2.762814951E0,1.585298862E0,1.778490282E0,3.648197722E0
3.538420958E0,2.962912810E0,1.007968177E0,1.845165498E0,3.633109946E0
3.548500958E0,3.488735664E0,6.458851951E-1,1.213179646E0,3.749699864E0
3.558580958E0,3.825044120E0,7.081399155E-1,3.549130531E-1,3.906198655E0
3.568660958E0,3.645098104E0,7.161172718E-1,-1.202110793E-1,3.716720980E0
3.578740958E0,2.538857236E0,8.931469882E-1,-1.380685490E-1,2.694915681E0
3.588820958E0,1.135423445E0,9.909849393E-1,-7.265785253E-1,1.673067214E0
3.598900958E0,2.459393721E-3,5.836474317E-1,-1.504685054E0,1.613916815E0
3.608979958E0,-1.047843118E0,2.524026650E-1,-1.571142753E0,1.905300988E0
3.619059958E0,-1.849750007E0,1.416838825E-2,-1.089850319E0,2.146986155E0
3.629139958E0,-2.274962014E0,-1.071256685E-1,-7.395237491E-1,2.394540342E0
3.639219958E0,-2.403246710E0,-1.626081437E-1,-5.358955604E-1,2.467634537E0
3.649299958E0,-2.516572035E0,-5.236830658E-1,-2.930630332E-1,2.587134458E0
3.659379958E0,-2.619841172E0,-1.042505341E0,2.630230359E-1,2.831883873E0
3.669459958E0,-2.621636268E0,-1.195784837E0,6.498040722E-1,2.953831991E0
3.679539958E0,-2.359848529E0,-7.109114957E-1,1.185003814E0,2.734687235E0
3.689619958E0,-1.762036510E0,-2.078316790E-1,1.490376917E0,2.317151273E0
3.699699958E0,-9.049493737E-1,-8.578917861E-2,1.335825067E0,1.615772806E0
3.709778958E0,-2.110654816E-1,2.915825182E-1,9.700975887E-1,1.034726212E0
3.719858958E0,2.649249342E-1,9.971788949E-1,5.530670055E-1,1.170655407E0
3.729938958E0,5.965543197E-1,1.318561748E0,4.812430244E-2,1.448032488E0
3.740018958E0,7.476559836E-1,1.220503941E0,-5.031184814E-1,1.517151128E0
3.750098958E0,4.919923629E-1,8.349046272E-1,-8.436409521E-1,1.284854964E0
3.760178958E0,-5.518437680E-2,4.692367172E-1,-9.305855405E-1,1.043656007E0
3.770258958E0,-3.158758355E-1,1.836318076E-1,-1.005628121E0,1.069946776E0
3.780338958E0,-2.986402171E-1,-8.814326763E-2,-1.120719452E0,1.163171228E0
3.790418958E0,-1.131056160E-1,-3.060923839E-1,-1.292773772E0,1.333322712E0
3.800498958E0,1.354025476E-1,-4.013254005E-1,-1.413131690E0,1.475241370E0
3.810578958E0,3.289287211E-1,-4.458601338E-1,-1.385077919E0,1.491786246E0
3.820657958E0,3.877750264E-1,-3.473544306E-1,-1.182279523E0,1.291824076E0
3.830737958E0,4.506990336E-1,-2.335559195E-1,-1.203870952E0,1.306515692E0
3.840817958E0,5.151673271E-1,-2.620149028E-1,-1.198720724E0,1.330781935E0
3.850897958E0,5.577196715E-1,-4.199604768E-1,-9.671768314E-1,1.192832368E0
3.860977958E0,5.910493855E-1,-4.466939467E-1,-7.002613771E-1,1.019431633E0
3.871057958E0,6.822920063E-1,-4.400556028E-1,-4.549344277E-1,9.306646275E-1
3.881137958E0,9.161112698E-1,-3.174587864E-1,-1.971412146E-1,9.893960775E-1
3.891217958E0,1.060094789E0,-2.411461902E-1,4.334891796E-2,1.088040245E0
3.901297958E0,1.213441820E0,-2.148003906E-1,1.682981241E-1,1.243746163E0
3.911377958E0,1.411646205E0,-2.958679426E-1,-2.304048916E-1,1.460605786E0
3.921457958E0,1.742930586E0,-3.843971264E-1,-8.288474965E-1,1.967881184E0
3.931536958E0,2.062667740E0,-4.320571965E-1,-1.131616323E0,2.392034099E0
3.941616958E0,2.110940599E0,-3.721565652E-1,-8.159403527E-1,2.293540795E0
3.951696958E0,1.937001867E0,-4.369250035E-1,-1.153491561E-1,1.989016118E0
3.961776958E0,1.654429469E0,-5.737369859E-1,1.591319740E-1,1.758304292E0
3.971856958E0,1.395639452E0,-5.718272853E-1,6.627818942E-2,1.509698222E0
3.981936958E0,1.147450875E0,-4.842435962E-1,-1.968536047E-1,1.260907099E0
3.992016958E0,1.156259267E0,-3.414323705E-1,-5.629804480E-1,1.330585789E0
4.002096958E0,1.309191438E0,-1.638430756E-1,-9.791267129E-1,1.643020358E0
4.012176958E0,1.471134900E0,-1.082787395E-1,-1.054236610E0,1.813112520E0
4.022256958E0,1.608527657E0,-6.802592218E-2,-8.657165301E-1,1.827964403E0
4.032336958E0,1.756390877E0,-2.694432056E-1,-5.994601301E-1,1.875329571E0
4.042415958E0,1.866795518E0,-4.923589468E-1,-2.778072090E-1,1.950517799E0
4.052495958E0,1.750145174E0,-7.829679036E-1,-3.503549293E-2,1.917622057E0
4.062575958E0,1.402004146E0,-1.100481069E0,-1.466496304E-2,1.782383031E0
4.072655958E0,9.216819122E-1,-1.267393933E0,-1.440110012E-1,1.573697588E0
4.082735958E0,3.094668486E-1,-1.479254344E0,-2.858398946E-1,1.538072686E0
4.092815958E0,-1.025791660E-1,-1.760759770E0,-4.767772865E-1,1.827050638E0
4.102895958E0,-3.471600106E-1,-2.191442286E0,-7.902371621E-1,2.355294916E0
4.112975958E0,-4.203113828E-1,-2.752652197E0,-1.244343478E0,3.049942044E0
4.123055958E0,-2.466758289E-1,-3.620773103E0,-1.516747567E0,3.933366244E0
4.133135958E0,7.663974792E-2,-4.330686479E0,-1.341316041E0,4.534296831E0
4.143214958E0,4.246873659E-1,-4.407986085E0,-7.551877820E-1,4.492327823E0
4.153294958E0,6.296944743E-1,-3.826367637E0,-4.534047961E-2,3.878100074E0
4.163374958E0,5.301519866E-1,-2.204101508E0,6.486317785E-1,2.357932945E0
4.173454958E0,1.672289059E-1,4.837395662E-1,2.287705582E0,2.344262423E0
4.183534958E0,5.314066529E-2,4.259420030E0,4.417052193E0,6.136434876E0
4.193614958E0,7.679228716E-2,9.072067351E0,5.748055061E0,1.074003911E1
4.203694958E0,-8.028320646E-1,1.248591743E1,5.666431439E0,1.373503253E1
4.213774958E0,-2.478082446E0,1.310022357E1,5.466087120E0,1.440954054E1
4.223854958E0,-3.428574832E0,5.439812656E0,4.072747085E0,7.611435865E0
4.233934958E0,-3.842171199E0,-2.143970497E0,2.536387664E0,5.078597385E0
4.244014958E0,-4.315850046E0,-4.986845816E0,1.883519285E0,6.858778150E0
4.254093958E0,-4.758255352E0,-5.758853699E0,1.755493329E0,7.673796111E0
4.264173750E0,-4.977898407E0,-4.909408801E0,1.910587216E0,7.247903892E0
4.274253750E0,-4.902889155E0,-3.199008760E0,1.837188141E0,6.135734624E0
4.284333750E0,-4.713441415E0,-1.488415176E0,1.619890405E0,5.201533873E0
4.294413750E0,-4.399054463E0,-4.390089512E-3,1.155922029E0,4.548390394E0
4.304493750E0,-3.485719086E0,7.412433422E-1,8.221851059E-1,3.657275979E0
4.314573750E0,-2.158231563E0,8.019204837E-1,4.967911363E-1,2.355385611E0
4.324653750E0,-9.113581413E-1,1.013460467E0,4.304720163E-1,1.429329191E0
4.334733750E0,1.981600737E-1,1.379257600E0,6.203322780E-1,1.525264265E0
4.344813750E0,1.068643272E0,1.570283797E0,7.018260920E-1,2.024931976E0
4.354892750E0,1.745093325E0,1.724031070E0,6.252544641E-1,2.531516737E0
4.364972750E0,2.245447755E0,1.551305489E0,6.248416507E-1,2.799823464E0
4.375052750E0,2.554804054E0,1.150967683E0,7.649385258E-1,2.904631011E0
4.385132750E0,2.708351645E0,5.721406960E-1,1.156309042E0,2.999927367E0
4.395212750E0,2.766565939E0,-1.752930933E-1,1.640547448E0,3.221181568E0
4.405292750E0,2.542244528E0,-8.677846903E-1,1.892557765E0,3.286005539E0
4.415372750E0,2.183975100E0,-1.396568282E0,1.782987961E0,3.146298821E0
4.425452750E0,1.663411670E0,-1.472568052E0,1.460238029E0,2.658512771E0
4.435532750E0,1.130847706E0,-1.351983263E0,1.084941509E0,2.069727846E0
4.445612750E0,6.997158319E-1,-1.082306753E0,8.014322412E-1,1.517657337E0
4.455692750E0,3.125393411E-1,-6.903146785E-1,5.721992048E-1,9.495404810E-1
4.465771750E0,6.110939696E-2,-2.843419111E-1,3.300718153E-1,4.399228160E-1
4.475851750E0,-2.081855086E-1,-4.886635065E-2,7.920755267E-2,2.280415809E-1
4.485931750E0,-5.005587166E-1,9.075054109E-2,-8.409582496E-2,5.156227276E-1
4.496011750E0,-8.367466463E-1,2.414940995E-1,-4.100886226E-1,9.626198775E-1
4.506091750E0,-1.238397737E0,2.365906245E-1,-8.062871844E-1,1.496563765E0
4.516171750E0,-1.545987739E0,1.137371153E-1,-1.077397431E0,1.887802809E0
4.526251750E0,-1.664224286E0,-7.187397480E-2,-1.429036117E0,2.194755696E0
4.536331750E0,-1.484573994E0,-2.214708942E-1,-1.914250935E0,2.432563657E0
4.546411750E0,-8.200417359E-1,-5.223294353E-1,-2.117459806E0,2.330006978E0
4.556491750E0,-7.945050448E-3,-7.032247460E-1,-1.604006444E0,1.751406531E0
4.566570750E0,6.154844977E-1,-6.492298025E-1,-6.998713678E-1,1.135843490E0
4.576650750E0,1.091424901E0,-4.143787247E-1,-2.047589672E-1,1.185261270E0
4.586730750E0,1.589945937E0,-2.299908721E-1,-9.269072033E-2,1.609166073E0
4.596810750E0,2.036578634E0,-1.923617005E-2,-3.503874544E-1,2.066589928E0
4.606890750E0,2.393613568E0,8.669374287E-2,-6.046507034E-1,2.470324714E0
4.616970750E0,2.622446984E0,3.692925990E-2,-9.198658401E-1,2.779342569E0
4.627050750E0,2.672854953E0,-7.804688036E-2,-1.397749420E0,3.017274989E0
4.637130750E0,2.507160941E0,1.862221241E-1,-2.004999138E0,3.215673523E0
4.647210750E0,2.253796848E0,3.485297209E-1,-2.548444623E0,3.419889354E0
4.657290750E0,2.088254133E0,2.658483374E-1,-3.007812409E0,3.671296250E0
4.667370750E0,1.909579741E0,3.134932047E-1,-3.510550164E0,4.008582696E0
4.677449750E0,1.832319311E0,4.742401797E-1,-3.804589097E0,4.249375955E0
4.687529750E0,1.876955786E0,1.041408404E0,-3.503602502E0,4.108859328E0
4.697609750E0,2.043992318E0,2.248542686E0,-2.437301917E0,3.895419033E0
4.707689750E0,2.039119834E0,3.339434906E0,-8.884774017E-1,4.012384239E0
4.717769750E0,1.730793229E0,3.177550063E0,8.145061038E-1,3.708893339E0
4.727849750E0,1.579775874E0,1.324284418E0,1.951987111E0,2.838956624E0
4.737929750E0,1.920561543E0,-5.080359167E-1,2.655742784E0,3.316568538E0
4.748009750E0,2.412501098E0,-9.932595062E-1,2.995127460E0,3.972091955E0
4.758089750E0,2.591699108E0,-6.880126297E-1,2.544798299E0,3.696791045E0
4.768169750E0,2.689763347E0,7.408287746E-1,1.253715541E0,3.058669121E0
4.778248750E0,2.386438742E0,2.747273929E0,-1.090696412E0,3.798976516E0
4.788328750E0,9.198851359E-1,4.140072511E0,-3.420293128E0,5.448375367E0
4.798408750E0,-4.251762662E-1,4.101338215E0,-4.174372278E0,5.867464012E0
4.808488750E0,-1.005056629E0,3.443325895E0,-2.868069218E0,4.592652075E0
4.818568750E0,-1.124644103E0,2.691421325E0,-9.693946803E-1,3.073808574E0
4.828648750E0,-9.057098772E-1,2.082791664E0,4.081613072E-1,2.307580367E0
4.838728750E0,-4.667590692E-1,1.232316486E0,1.651040862E0,2.112440266E0
4.848808750E0,2.073620014E-2,4.089069003E-1,2.671928462E0,2.703116081E0
4.858888750E0,3.204788367E-1,-2.280080813E-1,2.739234592E0,2.767327324E0
4.868968750E0,2.582443989E-1,-2.637222898E-1,2.209098539E0,2.239722297E0
4.879048750E0,-2.869177558E-2,-7.097818136E-2,1.562021681E0,1.563896689E0
4.889127750E0,-3.706677179E-1,-2.329179883E-2,9.112803002E-1,9.840573411E-1
4.899207750E0,-6.920252815E-1,-2.142367190E-1,4.039198101E-2,7.255534950E-1
4.909287750E0,-9.209823659E-1,-4.721223181E-1,-7.781609807E-1,1.294852313E0
4.919367750E0,-1.206743104E0,-6.991907519E-1,-1.712037261E0,2.208204748E0
4.929447750E0,-1.390409556E0,-9.698156798E-1,-2.496904925E0,3.017998574E0
4.939527750E0,-1.525969357E0,-1.211423215E0,-3.059335150E0,3.627073234E0
4.949607750E0,-1.599050344E0,-1.524094301E0,-2.857052479E0,3.611450444E0
4.959687750E0,-1.605414746E0,-1.725145549E0,-2.168735794E0,3.202639320E0
4.969767750E0,-1.639338975E0,-1.795722612E0,-1.338393749E0,2.775490912E0
4.979847750E0,-1.651586992E0,-1.740916075E0,-5.592733133E-1,2.464003857E0
4.989926750E0,-1.597400552E0,-1.579989005E0,1.805544180E-1,2.254030540E0
5.000006750E0,-1.538725351E0,-1.285973461E0,7.634194922E-1,2.145742941E0
5.010086750E0,-1.470393327E0,-1.041722399E0,1.296806012E0,2.220123403E0
5.020166750E0,-1.198411479E0,-9.827199000E-1,1.349064918E0,2.054727385E0
5.030246750E0,-7.347823881E-1,-8.328078157E-1,1.027839940E0,1.513251122E0
5.040326750E0,-2.168527998E-1,-3.932445484E-1,7.004473186E-1,8.320413798E-1
5.050406750E0,3.449743214E-1,3.363961637E-2,1.663100525E-1,3.844449763E-1
5.060486750E0,9.875513812E-1,-8.231827140E-2,-6.309380309E-1,1.174783736E0
5.070566750E0,1.658730243E0,-7.890226954E-1,-1.477245240E0,2.357158529E0
5.080646750E0,2.278729960E0,-9.613003796E-1,-1.835329896E0,3.079796175E0
5.090726750E0,2.727751245E0,-5.090094781E-1,-1.446291250E0,3.129133408E0
5.100805750E0,3.103467595E0,-2.347820807E-1,-6.734623452E-1,3.184365756E0
5.110885750E0,3.342790916E0,-5.577775955E-2,4.790928570E-1,3.377409100E0
5.120965750E0,3.380819744E0,-1.131155562E-1,1.809798614E0,3.836418681E0
5.131045750E0,3.263659084E0,-3.228575206E-1,2.614854959E0,4.194421778E0
5.141125750E0,2.887959399E0,-7.358761829E-1,2.308192910E0,3.769559359E0
5.151205750E0,2.012501846E0,-1.025406913E0,1.470465978E0,2.695161073E0
5.161285750E0,5.803887784E-1,-1.242726284E0,5.740071273E-1,1.486843614E0
5.171365750E0,-7.091442478E-1,-1.611727107E0,-3.941584682E-1,1.804414235E0
5.181445750E0,-1.605603611E0,-2.078892156E0,-7.587006430E-1,2.734114521E0
5.191525750E0,-2.229897523E0,-2.366362912E0,-9.147534733E-1,3.377704888E0
5.201604750E0,-2.587797846E0,-2.463218531E0,-1.020523757E0,3.715590392E0
5.211684750E0,-2.623708228E0,-2.392536803E0,-1.169262013E0,3.738348683E0
5.221764750E0,-2.313420467E0,-2.518507463E0,-1.124767918E0,3.599985690E0
5.231844750E0,-1.678916293E0,-2.883224616E0,-1.068454553E0,3.503332590E0
5.241924750E0,-1.035600218E0,-3.041550844E0,-1.031957549E0,3.374675648E0
5.252004750E0,-6.065508293E-1,-2.448288251E0,-8.230572912E-1,2.653194786E0
5.262084333E0,-4.630253662E-1,-9.124123943E-1,4.010020494E-1,1.098950186E0
5.272164333E0,-6.237758495E-1,1.781848338E0,2.142547138E0,2.855623934E0
5.282244333E0,-1.300387724E0,5.384561146E0,2.356120344E0,6.019618762E0
5.292324333E0,-2.100769221E0,9.180860646E0,1.728290620E0,9.575407145E0
5.302404333E0,-2.923745528E0,1.101640104E1,2.001275046E0,1.157214248E1
5.312483333E0,-3.710560607E0,7.682164895E0,2.173336237E0,8.803823481E0
5.322563333E0,-3.497321131E0,1.611243542E0,1.676207278E0,4.199646614E0
5.332643333E0,-2.917419426E0,-9.933220714E-1,2.123901537E0,3.742857542E0
5.342723333E0,-2.167974486E0,-1.632734399E0,2.857367059E0,3.940873190E0
5.352803333E0,-1.410406595E0,-1.593417721E0,3.524694579E0,4.117244062E0
5.362883333E0,-8.126707359E-1,-1.330036324E0,3.981386972E0,4.275613706E0
5.372963333E0,-4.789514275E-1,-1.153617057E0,3.738715535E0,3.941854974E0
5.383043333E0,-4.303231316E-1,-1.237333982E0,3.014517119E0,3.286865808E0
5.393123333E0,-5.628169452E-1,-1.386332147E0,2.233421056E0,2.688279998E0
5.403203333E0,-7.079152362E-1,-1.242318733E0,1.479472883E0,2.057508160E0
5.413283333E0,-8.621431504E-1,-1.038983563E0,8.456160685E-1,1.593061264E0
5.423362333E0,-9.414272285E-1,-6.444625676E-1,4.695383605E-1,1.233727482E0
5.433442333E0,-7.663362296E-1,-1.156304437E-1,3.517895436E-1,8.511154442E-1
5.443522333E0,-4.337665204E-1,3.894514596E-1,2.315543445E-1,6.272505465E-1
5.453602333E0,-1.165510513E-1,6.146628177E-1,-7.584774256E-2,6.301963242E-1
5.463682333E0,1.654409369E-1,5.128592849E-1,-3.574261133E-1,6.466442424E-1
5.473762333E0,4.803447093E-1,4.364227277E-1,-5.533477449E-1,8.528713642E-1
5.483842333E0,8.112440883E-1,4.496701795E-1,-5.743240464E-1,1.090948372E0
5.493922333E0,1.178747512E0,4.293592912E-1,-4.822725729E-1,1.344017088E0
5.504002333E0,1.557792390E0,3.331720090E-1,-2.997681085E-1,1.620981689E0
5.514082333E0,1.860555954E0,3.308664519E-1,-3.924007952E-1,1.930056852E0
5.524162333E0,2.196100178E0,-2.962257922E-2,3.136482290E-1,2.218582589E0
5.534241333E0,2.157979256E0,-5.812910038E-1,7.293816805E-1,2.350908619E0
5.544321333E0,2.089372998E0,-7.475589198E-1,1.162694274E0,2.505230895E0
5.554401333E0,2.279518896E0,-8.546799105E-1,1.187770643E0,2.708778922E0
5.564481333E0,2.506855132E0,-9.691414958E-1,6.499437475E-1,2.765137387E0
5.574561333E0,2.626013493E0,-1.131845534E0,-8.700656891E-4,2.859549254E0
5.584641333E0,2.691271928E0,-1.173677684E0,-5.247536544E-1,2.982587852E0
5.594721333E0,2.667992701E0,-1.243934319E0,-9.368748057E-1,3.089221916E0
5.604801333E0,2.326255690E0,-9.730006582E-1,-8.007258976E-1,2.645629940E0
5.614881333E0,1.598723484E0,-5.017250168E-1,-3.181668842E-1,1.705542417E0
5.624961333E0,9.887762998E-1,-4.045460469E-1,-2.050139058E-1,1.087826630E0
5.635040333E0,6.741091935E-1,-5.387279516E-1,-2.174895251E-1,8.899172457E-1
5.645120333E0,3.727863834E-1,-7.454515833E-1,-1.550675744E-1,8.477698410E-1
5.655200333E0,3.049396053E-2,-8.250579160E-1,-2.489522048E-1,8.623384757E-1
5.665280333E0,-3.675991722E-1,-9.311451191E-1,-4.392902023E-1,1.093222880E0
5.675360333E0,-7.585245688E-1,-9.899698627E-1,-5.274357722E-1,1.354100567E0
5.685440333E0,-1.082471718E0,-1.101267520E0,-4.638169330E-1,1.612346525E0
5.695520333E0,-1.346089854E0,-1.129903089E0,-5.076827449E-1,1.829311525E0
5.705600333E0,-1.558903653E0,-9.942090940E-1,-8.295883387E-1,2.026536241E0
5.715680333E0,-1.558565684E0,-7.408813995E-1,-1.618619220E0,2.366000934E0
5.725760333E0,-8.129731831E-1,-5.424456114E-1,-2.968867030E0,3.125594996E0
5.735840333E0,4.526676084E-1,-3.023279464E-1,-4.119199705E0,4.155010994E0
5.745919333E0,1.387437855E0,-5.666302800E-2,-4.126446744E0,4.353820992E0
5.755999333E0,2.109941017E0,3.121793354E-1,-3.000473569E0,3.681324310E0
5.766079333E0,2.562177978E0,6.687817222E-1,-1.437277913E0,3.012937567E0
5.776159333E0,2.924610624E0,9.880075371E-1,3.963716394E-1,3.112332995E0
5.786239333E0,3.147631030E0,1.657321356E0,2.464420719E0,4.327547187E0
5.796319333E0,3.228807048E0,2.024588479E0,3.736519321E0,5.337202460E0
5.806399333E0,3.162818588E0,1.607082664E0,3.542701664E0,5.013668436E0
5.816479333E0,3.036638305E0,1.075263197E0,1.987204306E0,3.785015733E0
5.826559333E0,2.929762898E0,1.525348529E0,-5.197655775E-2,3.303467926E0
5.836639333E0,2.030060889E0,3.555747972E0,-1.704224212E0,4.434960091E0
5.846718333E0,7.626689290E-1,5.313633251E0,-2.604179113E0,5.966415261E0
5.856798333E0,-7.392755348E-1,6.430073125E0,-2.612397959E0,6.979755856E0
5.866878333E0,-2.275196488E0,6.616065454E0,-2.283174575E0,7.359465150E0
5.876958333E0,-3.050410837E0,6.049408277E0,-2.194798442E0,7.121621092E0
5.887038333E0,-3.113252326E0,5.041433083E0,-1.955555667E0,6.239598187E0
5.897118333E0,-2.915203331E0,3.372685683E0,-1.620920100E0,4.743500938E0
5.907198333E0,-2.113324947E0,1.842673999E0,-2.427899156E-1,2.814344816E0
5.917278333E0,-4.918471693E-1,8.265577269E-1,1.177873573E0,1.520689800E0
5.927358333E0,8.544766467E-1,1.263583302E-2,1.395259237E0,1.636165744E0
5.937438333E0,1.560327597E0,-7.300593728E-1,8.077576860E-1,1.902651144E0
5.947518333E0,1.865274365E0,-1.346834205E0,-9.794897519E-2,2.302781977E0
5.957597333E0,1.972179447E0,-1.813398160E0,-1.403501911E0,3.024520172E0
5.967677333E0,1.886864916E0,-1.980209282E0,-2.668037140E0,3.820982883E0
5.977757333E0,1.456700025E0,-1.954987317E0,-3.163460028E0,3.993924100E0
5.987837333E0,8.651902807E-1,-1.895915236E0,-2.528173496E0,3.276386734E0
5.997917333E0,4.582400049E-1,-1.760875545E0,-1.475695728E0,2.342721595E0
6.007997333E0,7.679688270E-2,-1.600361289E0,-6.281570220E-1,1.720940226E0
6.018077333E0,-2.371055632E-1,-1.452955322E0,1.521317239E-1,1.480014282E0
6.028157333E0,-5.683610559E-1,-1.299897435E0,7.916861022E-1,1.624664432E0
6.038237333E0,-8.992825446E-1,-1.108153785E0,1.172305927E0,1.846893363E0
6.048317333E0,-1.068017328E0,-7.662407738E-1,1.309918978E0,1.855713789E0
6.058397333E0,-1.035886659E0,-2.516694242E-1,1.163815770E0,1.578247704E0
6.068476333E0,-8.445015161E-1,7.961042583E-2,4.021715291E-1,9.387558625E-1
6.078556333E0,-7.416935778E-1,3.701989174E-1,-6.953731048E-1,1.081989074E0
6.088636333E0,-8.847359146E-1,7.837526000E-1,-1.996694337E0,2.320304733E0
6.098716333E0,-1.038417114E0,1.180095588E0,-2.927151239E0,3.322521644E0
6.108796333E0,-6.841691087E-1,1.077707918E0,-2.697591891E0,2.984383310E0
6.118876333E0,2.842613291E-1,7.348137438E-2,-1.070457883E0,1.109992835E0
6.128956333E0,9.391426483E-1,-8.325797743E-1,8.998525751E-1,1.544316241E0
6.139036333E0,1.164975492E0,-1.334522892E0,2.361449497E0,2.952043864E0
6.149116333E0,1.331916057E0,-1.824959859E0,3.019706815E0,3.771353619E0
6.159196333E0,1.424744845E0,-2.402627344E0,2.727600971E0,3.904141786E0
6.169275333E0,1.276291056E0,-2.883038090E0,1.816435204E0,3.638717403E0
6.179355333E0,6.980867245E-1,-3.475691403E0,1.138583865E0,3.723456596E0
6.189435333E0,-1.831711201E-1,-4.305121867E0,1.104876860E0,4.448413068E0
6.199515333E0,-8.233889014E-1,-5.119365942E0,1.188246607E0,5.319568303E0
6.209595333E0,-1.097482982E0,-5.651489464E0,1.057400977E0,5.853366457E0
6.219675333E0,-9.688533743E-1,-5.844437640E0,8.384861930E-1,5.983242205E0
6.229755333E0,-6.303228307E-1,-5.595566694E0,6.383722539E-1,5.667026789E0
6.239835333E0,-5.228397511E-1,-4.875780879E0,1.692336237E-1,4.906652688E0
6.249915333E0,-8.053590851E-1,-2.953187721E0,3.312446205E-1,3.078903046E0
6.259996625E0,-8.664145415E-1,5.653029621E-1,1.300879329E0,1.662085625E0
6.270076625E0,-3.926175077E-1,6.512039394E0,1.974751637E0,6.816190256E0
6.280155625E0,-2.249219209E-2,1.330315704E1,3.146499009E0,1.367022125E1
6.290235625E0,-6.496475130E-1,1.539724844E1,5.489689990E0,1.635952315E1
6.300315625E0,-1.876751280E0,9.885743662E0,5.361065279E0,1.140136589E1
6.310395625E0,-2.830701124E0,3.586120749E-1,1.975552998E0,3.470487159E0
6.320475625E0,-3.779713288E0,-4.055058673E0,-5.108453576E-1,5.566928809E0
6.330555625E0,-3.965290464E0,-3.847179047E0,-4.611077718E-1,5.544090138E0
6.340635625E0,-2.980947669E0,-5.216055501E-1,1.517469552E0,3.385385532E0
6.350715625E0,-1.491804515E0,9.418665737E-1,2.596960140E0,3.139553364E0
6.360795625E0,-3.651258731E-1,4.510922223E-1,3.239362149E0,3.290937287E0
6.370875625E0,1.359381891E-1,-8.432854414E-3,4.107050360E0,4.109308089E0
6.380954625E0,3.751280471E-1,-6.523650795E-1,4.330246768E0,4.395149408E0
6.391034625E0,4.206834850E-1,-1.233465464E0,3.552909733E0,3.784386240E0
6.401114625E0,3.268786508E-1,-1.375901299E0,2.396286038E0,2.782470272E0
6.411194625E0,2.257124645E-1,-9.429149795E-1,1.420893284E0,1.720166416E0
6.421274625E0,1.617791547E-1,-3.480695450E-1,6.911327771E-1,7.905627228E-1
6.431354625E0,1.621228979E-1,3.625712246E-1,4.560718574E-2,3.997771158E-1
6.441434625E0,1.738704658E-1,8.394619471E-1,-5.834327658E-1,1.036976900E0
6.451514625E0,1.755894741E-1,8.186780190E-1,-7.511508644E-1,1.124852427E0
6.461594625E0,1.190993044E-1,4.418413424E-1,-5.763705719E-1,7.359425605E-1
6.471674625E0,-3.661438733E-2,-1.782342428E-1,-4.209060446E-1,4.585520222E-1
6.481754625E0,-2.370146938E-1,-6.363729447E-1,-4.236144018E-1,8.003721955E-1
6.491833625E0,-3.488911519E-1,-8.841247344E-1,-3.833457971E-1,1.024868568E0
6.501913625E0,-4.105268714E-1,-8.648417866E-1,-3.005819678E-1,1.003410757E0
6.511993625E0,-3.360658691E-1,-6.480860871E-1,-3.852847338E-1,8.254696668E-1
6.522073625E0,-1.820435576E-2,-1.411295664E-1,-3.991648908E-1,4.237706492E-1
6.532153625E0,5.261909366E-2,3.981953859E-2,-6.052792426E-1,6.088656060E-1
6.542233625E0,-4.376911350E-2,1.051446319E-2,-2.638462690E-1,2.676586313E-1
6.552313625E0,1.488180703E-1,6.656762660E-2,9.484418591E-2,1.886093491E-1
6.562393625E0,5.508108573E-1,1.232996517E-1,5.201097409E-2,5.668337906E-1
6.572473625E0,8.583005796E-1,1.640787184E-2,-2.517366672E-1,8.946063116E-1
6.582553625E0,1.104380285E0,-2.545468390E-1,-3.617181158E-1,1.189659574E0
6.592633625E0,1.318497574E0,-4.629872131E-1,-4.200984710E-1,1.459203803E0
6.602712625E0,1.414796100E0,-6.668462938E-1,-5.823060805E-1,1.668955468E0
6.612792625E0,1.196507334E0,-8.270646805E-1,-6.215771502E-1,1.581778726E0
6.622872625E0,6.825943805E-1,-8.459839314E-1,-5.647287655E-1,1.224966318E0
6.632952625E0,2.765661375E-1,-8.271710998E-1,-3.250314788E-1,9.307772660E-1
6.643032625E0,2.039260313E-2,-7.713278514E-1,-2.873929882E-1,8.233815897E-1
6.653112625E0,-2.974722724E-1,-6.364004266E-1,-7.265259004E-1,1.010611270E0
6.663192625E0,-3.918651903E-1,-2.362029541E-1,-1.201302270E0,1.285487186E0
6.673272625E0,-1.312191206E-1,2.910393119E-2,-1.561919355E0,1.567691796E0
6.683352625E0,3.315947226E-1,7.527237654E-2,-1.767196970E0,1.799612770E0
6.693432625E0,7.141350657E-1,-1.092733508E-1,-1.795843649E0,1.935712780E0
6.703511625E0,1.071743978E0,-3.762987328E-1,-1.656264764E0,2.008344806E0
6.713591625E0,1.411798817E0,-5.848484498E-1,-1.198274070E0,1.941928000E0
6.723671625E0,1.671309942E0,-8.070005447E-1,-1.015180133E0,2.115447353E0
6.733751625E0,1.808884255E0,-9.035807598E-1,-1.500187376E0,2.517753483E0
6.743831625E0,1.935926271E0,-9.653378820E-1,-2.118264382E0,3.027661102E0
6.753911625E0,2.062471128E0,-9.075995511E-1,-2.458124437E0,3.334651383E0
6.763991625E0,2.071703297E0,-4.175081545E-1,-2.071417075E0,2.959229006E0
6.774071625E0,1.788739720E0,7.898997778E-1,-6.368395525E-1,2.056476614E0
6.784151625E0,1.315727018E0,2.256201954E0,9.842635649E-1,2.791121568E0
6.794231625E0,9.711614165E-1,2.793208485E0,2.128187107E0,3.643397934E0
6.804311625E0,8.816300198E-1,1.181328766E0,2.119253147E0,2.581480785E0
6.814390625E0,1.585103857E0,2.590889561E-1,1.471029650E0,2.177982910E0
6.824470625E0,2.522575956E0,1.323709052E0,2.867766917E-2,2.848932698E0
6.834550625E0,2.981227166E0,2.779228377E0,-1.409391811E0,4.312564326E0
6.844630625E0,2.872837915E0,4.396314458E0,-1.958841802E0,5.605161880E0
6.854710625E0,2.396696951E0,5.208971014E0,-2.317931594E0,6.184686102E0
6.864790625E0,1.493837592E0,5.096164775E0,-3.026353930E0,6.112386136E0
6.874870625E0,1.027631706E-1,4.315381392E0,-3.412646724E0,5.502657039E0
6.884950625E0,-7.434941547E-1,3.440519232E0,-2.969329544E0,4.605092191E0
6.895030625E0,-9.519878847E-1,2.473072259E0,-2.248730966E0,3.475508350E0
6.905110625E0,-4.929468478E-1,1.409297086E0,-1.271792209E0,1.961267522E0
6.915190625E0,2.756743275E-1,3.822740024E-1,1.146226030E-2,4.714457882E-1
6.925269625E0,7.944458418E-1,-2.627013659E-1,8.491700792E-1,1.192160235E0
6.935349625E0,9.095336638E-1,-4.326267153E-1,9.807165708E-1,1.405781759E0
6.945429625E0,7.869893993E-1,-2.782268929E-1,9.700103190E-1,1.279719711E0
6.955509625E0,6.962376156E-1,-2.502608299E-3,1.038783004E0,1.250529172E0
6.965589625E0,6.064633403E-1,1.666263503E-1,1.151023232E0,1.311646524E0
6.975669625E0,4.351143401E-1,4.845587611E-2,1.245633081E0,1.320331108E0
6.985749625E0,1.650599360E-1,-1.066491205E-1,1.054455296E0,1.072611201E0
6.995829625E0,-1.925584045E-1,-2.121960407E-1,2.964005874E-1,4.122610909E-1
7.005909625E0,-4.483471008E-1,-4.627907467E-1,-8.407553512E-1,1.059273316E0
7.015989625E0,-5.558666158E-1,-6.964115703E-1,-1.842105650E0,2.046296654E0
7.026069625E0,-7.162315848E-1,-9.102845925E-1,-2.466340359E0,2.724782650E0
7.036148625E0,-8.480966766E-1,-1.147633601E0,-2.819836121E0,3.160349127E0
7.046228625E0,-1.008526148E0,-1.273263953E0,-2.923670976E0,3.344574421E0
7.056308625E0,-1.107140024E0,-1.152285646E0,-2.152700390E0,2.680977473E0
7.066388625E0,-1.122500660E0,-1.021925481E0,-8.267261267E-1,1.728529869E0
7.076468625E0,-1.162304557E0,-8.011135679E-1,1.964477348E-1,1.425246135E0
7.086548625E0,-9.245275328E-1,-5.816821826E-1,1.144983058E0,1.582432154E0
7.096628625E0,-3.611689161E-1,-4.462209070E-1,1.675275232E0,1.770904623E0
7.106708625E0,2.469882895E-1,-4.568037826E-1,1.377497588E0,1.472131963E0
7.116788625E0,7.581630646E-1,-6.315916765E-1,5.477297401E-1,1.128595209E0
7.126868625E0,1.203079312E0,-1.110113187E0,1.948947144E-1,1.648555449E0
7.136947625E0,1.607255157E0,-1.908904826E0,4.081708089E-1,2.528594507E0
7.147027625E0,1.857620359E0,-2.689345563E0,1.029958971E0,3.426973656E0
7.157107625E0,2.050135549E0,-3.272005985E0,1.658560381E0,4.202368555E0
7.167187625E0,2.075244224E0,-3.903108834E0,2.711687189E0,5.185956476E0
7.177267625E0,2.016110601E0,-4.717404950E0,3.856243401E0,6.417883185E0
7.187347625E0,2.014329393E0,-5.478062217E0,5.029083763E0,7.704438465E0
7.197427625E0,1.955573208E0,-6.183118896E0,4.798006479E0,8.066975395E0
7.207507625E0,1.767478952E0,-6.375605727E0,2.904782131E0,7.225654950E0
7.217587625E0,1.227469729E0,-5.583147792E0,8.115314059E-1,5.773803290E0
7.227667625E0,5.387703440E-1,-3.718184792E0,-3.382288273E-1,3.772210276E0
7.237747625E0,3.268593550E-4,-8.203678644E-1,1.098000388E-1,8.276832657E-1
7.247826625E0,-4.243969055E-1,3.441777552E0,8.575853920E-1,3.572309919E0
7.257906625E0,-1.027913395E0,9.602510383E0,6.340463376E-1,9.678162344E0
7.267985458E0,-2.206158997E0,1.397707905E1,3.118974996E0,1.448978541E1
7.278065458E0,-4.111426417E0,1.183109009E1,5.256476133E0,1.358341125E1
7.288145458E0,-5.675288801E0,4.458810083E0,3.642705424E0,8.084503271E0
7.298225458E0,-6.279512000E0,-2.415630966E-1,7.819469798E-1,6.332619108E0
7.308305458E0,-5.828037370E0,-1.362416450E0,-1.887138566E0,6.275626673E0
7.318385458E0,-4.301015952E0,-2.359369057E-1,-2.188900648E0,4.831737833E0
7.328465458E0,-2.466026364E0,8.108012348E-1,-1.079629898E-1,2.598141774E0
7.338545458E0,-1.028489127E0,7.170095569E-1,1.961002933E0,2.327536271E0
7.348625458E0,-3.742897756E-2,-1.028197789E-1,3.092719828E0,3.094654871E0
7.358704458E0,4.122735078E-1,-1.026148340E0,3.279792137E0,3.461211684E0
7.368784458E0,5.647665531E-1,-1.759120796E0,2.887933964E0,3.428356722E0
7.378864458E0,4.001560304E-1,-2.125233679E0,2.300792820E0,3.157592539E0
7.388944458E0,-1.038754937E-1,-2.062448031E0,1.696278430E0,2.672422592E0
7.399024458E0,-6.341381389E-1,-1.515165603E0,1.165131394E0,2.013799679E0
7.409104458E0,-8.950228480E-1,-8.187037468E-1,7.109500873E-1,1.405984264E0
7.419184458E0,-8.127183176E-1,-5.993635780E-1,1.844013011E-1,1.026524039E0
7.429264458E0,-7.100653305E-1,3.987497020E-1,-3.923072398E-1,9.039353233E-1
7.439344458E0,-6.092531931E-1,8.147931290E-1,-8.721952450E-1,1.340075312E0
7.449424458E0,-5.104045507E-1,8.011229235E-1,-1.331557184E0,1.635651332E0
7.459504458E0,-3.328792828E-1,6.085706037E-1,-1.610759393E0,1.753770971E0
7.469583458E0,-5.886932865E-2,3.336637598E-1,-1.654755013E0,1.689085923E0
7.479663458E0,2.496209984E-1,2.083976895E-1,-1.317416278E0,1.356954638E0
7.489743458E0,4.986023844E-1,1.011597544E-1,-8.650464392E-1,1.003565133E0
7.499823458E0,7.254899199E-1,-2.240512705E-1,-5.016150892E-1,9.100287322E-1
7.509903458E0,9.336866114E-1,-6.242095667E-1,-1.933405244E-1,1.139644168E0
7.519983458E0,1.179167342E0,-9.125726080E-1,4.577434301E-2,1.491750541E0
7.530063458E0,1.389909912E0,-1.179873394E0,2.241658759E-1,1.836899869E0
7.540143458E0,1.649729916E0,-1.318416737E0,1.288977760E-1,2.115761358E0
7.550223458E0,1.893554423E0,-1.200000095E0,-2.439294831E-1,2.255005582E0
7.560303458E0,2.095798795E0,-9.405141127E-1,-4.679713798E-1,2.344341400E0
7.570383458E0,2.063065643E0,-7.731831729E-1,-8.469586623E-1,2.360379428E0
7.580462458E0,1.540225600E0,-5.546499199E-1,-1.253226129E0,2.061675814E0
7.590542458E0,9.610061916E-1,-5.594832283E-1,-1.282397888E0,1.697379960E0
7.600622458E0,6.739407206E-1,-8.599809963E-1,-1.231815380E0,1.646551712E0
7.610702458E0,6.636888704E-1,-9.849769253E-1,-1.246228766E0,1.721554123E0
7.620782458E0,8.206928965E-1,-7.516958249E-1,-1.283958510E0,1.699156526E0
7.630862458E0,9.781247925E-1,-2.021581256E-1,-1.589026462E0,1.876859375E0
7.640942458E0,1.170282571E0,1.420791543E-1,-2.178307686E0,2.476847221E0
7.651022458E0,1.447296386E0,-1.721572316E-1,-2.982908533E0,3.319947027E0
7.661102458E0,1.730696019E0,-5.123330355E-1,-3.343099356E0,3.799224546E0
7.671182458E0,1.928605850E0,-8.296672761E-1,-2.739020584E0,3.451101573E0
7.681261458E0,2.055564250E0,-9.372133595E-1,-1.734343219E0,2.848097553E0
7.691341458E0,2.045886816E0,-1.126316407E0,-9.560291147E-1,2.523535849E0
7.701421458E0,1.924057885E0,-1.446611093E0,-5.046899937E-1,2.459551664E0
7.711501458E0,1.894647268E0,-1.143287365E0,-1.380650407E-1,2.217173025E0
7.721581458E0,1.909481946E0,2.520202571E-1,3.839754691E-1,1.963943144E0
7.731661458E0,1.614714303E0,2.342669994E0,1.042539255E0,3.030229873E0
7.741741458E0,1.086774245E0,3.926692409E0,1.950626464E0,4.517182212E0
7.751821458E0,5.578917624E-1,3.261119054E0,2.071963205E0,3.903738238E0
7.761901458E0,4.317402043E-1,2.512146862E0,1.615397404E0,3.017745886E0
7.771981458E0,5.200220510E-1,3.764485969E0,1.531456531E0,4.097210838E0
7.782061458E0,2.485121470E-1,4.805935888E0,1.430818348E0,5.020559649E0
7.792140458E0,-5.925544953E-1,5.221836058E0,9.798149302E-1,5.345907775E0
7.802220458E0,-1.791643594E0,5.045646586E0,4.132525510E-1,5.370224754E0
7.812300458E0,-2.628493005E0,4.393945751E0,-1.465950320E-1,5.122228503E0
7.822380458E0,-3.172383463E0,3.399097556E0,-5.734159007E-1,4.684729109E0
7.832460458E0,-3.620950858E0,2.133432645E0,-5.698620361E-1,4.241174685E0
7.842540458E0,-4.094353716E0,9.533528441E-1,-6.880997533E-1,4.259823385E0
7.852620458E0,-4.213350110E0,4.626685399E-1,-7.873427904E-1,4.311181972E0
7.862700458E0,-3.853036495E0,8.386842674E-1,-9.621417209E-1,4.058940530E0
7.872780458E0,-3.043813131E0,1.194217198E0,-6.022227933E-1,3.324699293E0
7.882860458E0,-1.475028415E0,6.581321883E-1,-1.818180013E-1,1.625393671E0
7.892940458E0,-2.480541638E-1,-4.324051058E-1,-1.611153495E-1,5.238923550E-1
7.903019458E0,5.744448645E-1,-1.464955562E0,-2.952123966E-1,1.601009700E0
7.913099458E0,1.048368637E0,-2.072770121E0,-3.892649335E-1,2.355202743E0
7.923179458E0,1.189163450E0,-1.728339298E0,-7.109395623E-1,2.215107560E0
7.933259458E0,1.301961210E0,-1.034234455E0,-1.426737576E0,2.190964174E0
7.943339458E0,1.724864737E0,-8.636548018E-1,-2.621234856E0,3.254524566E0
7.953419458E0,2.293565662E0,-9.642450374E-1,-3.786889576E0,4.531086470E0
7.963499458E0,2.539342262E0,-1.067177668E0,-4.227664386E0,5.045817422E0
7.973579458E0,2.055771680E0,-1.154164356E0,-3.154361175E0,3.938056245E0
7.983659458E0,1.306441054E0,-9.985184920E-1,-1.537699603E0,2.251299064E0
7.993739458E0,7.466720434E-1,-6.533415645E-1,-3.192906459E-1,1.042267172E0
8.003819458E0,2.169275346E-1,-5.385864490E-1,8.722781293E-1,1.047855932E0
8.013898458E0,-2.802848936E-1,-7.305055153E-1,1.874754163E0,2.031477566E0
8.023978458E0,-7.235286176E-1,-8.375042993E-1,2.553819383E0,2.783325449E0
8.034058458E0,-9.400158568E-1,-8.034086001E-1,2.820101584E0,3.079296695E0
8.044138458E0,-1.037822818E0,-5.663349956E-1,2.400425721E0,2.675790569E0
8.054218458E0,-7.603168134E-1,-2.407637823E-1,1.852480949E0,2.016862544E0
8.064298458E0,-5.179171264E-2,1.800866407E-1,8.604177833E-1,8.805863623E-1
8.074378458E0,6.548234683E-1,3.864150006E-1,-4.917927901E-1,9.055222116E-1
8.084458458E0,1.170433283E0,3.727635062E-1,-9.516602214E-1,1.553873830E0
8.094538458E0,1.728904286E0,2.560630220E-1,-2.841885678E-1,1.770717776E0
8.104618458E0,2.239157320E0,1.087231278E-1,6.273900135E-1,2.327931368E0
8.114698458E0,2.692860324E0,-1.411617261E-1,1.054383960E0,2.895366798E0
8.124777458E0,2.844998444E0,-7.344418609E-1,7.624896388E-1,3.035590789E0
8.134857458E0,2.348511070E0,-1.975467190E0,6.192541976E-1,3.130726853E0
8.144937458E0,1.387655956E0,-3.036275486E0,7.703085355E-1,3.426066712E0
8.155017458E0,3.393294925E-1,-3.491401117E0,9.233336775E-1,3.627336674E0
8.165097458E0,-9.067969476E-1,-3.576147738E0,9.294991279E-1,3.804613249E0
8.175177458E0,-1.972612141E0,-3.683630086E0,6.701119637E-1,4.231947461E0
8.185257458E0,-2.530348660E0,-4.320255631E0,2.107886159E-1,5.011158039E0
8.195337458E0,-2.820393360E0,-4.905753121E0,-8.359062552E-2,5.659330330E0
8.205417458E0,-3.090644943E0,-4.829286743E0,-5.968779266E-1,5.764578031E0
8.215497458E0,-3.338357264E0,-4.159136773E0,-1.561719088E0,5.557158845E0
8.225577458E0,-3.190465393E0,-2.949782302E0,-1.407549938E0,4.567437124E0
8.235656458E0,-2.463935984E0,-7.896506864E-1,-3.491485025E-1,2.610830025E0
8.245736458E0,-1.897654491E0,2.160351471E0,-6.004387347E-1,2.937471314E0
8.255816458E0,-1.326680314E0,4.882781165E0,-1.457662623E-1,5.061904816E0
8.265897083E0,-7.125010613E-1,6.886740668E0,2.442594671E0,7.341738453E0
8.275977083E0,2.217335804E-1,6.382154024E0,4.608225739E0,7.875074617E0
8.286057083E0,2.112793728E0,4.528574967E0,4.868052614E0,6.976376195E0
8.296137083E0,3.537962203E0,4.785875845E0,4.996491383E0,7.770888643E0
8.306217083E0,3.793145512E0,5.137593468E0,5.147201028E0,8.202225182E0
8.316297083E0,3.775232859E0,4.319152846E0,3.665275969E0,6.807474743E0
8.326377083E0,3.452813880E0,2.394378092E0,2.397705596E0,4.837764180E0
8.336457083E0,2.837954888E0,3.448892444E-1,1.875833559E0,3.419311053E0
8.346536083E0,1.748138994E0,-1.135023496E0,1.166339502E0,2.388433819E0
8.356616083E0,5.150980376E-2,-1.500635272E0,9.610030487E-2,1.504591223E0
8.366696083E0,-1.502901361E0,-1.134978472E0,-9.343031272E-1,2.102334646E0
8.376776083E0,-2.359134292E0,-6.583192992E-1,-1.440114251E0,2.841272244E0
8.386856083E0,-2.960846111E0,-4.961251384E-1,-1.312425095E0,3.276462952E0
8.396936083E0,-3.429657444E0,-2.791495836E-1,-7.331180513E-1,3.518229206E0
8.407016083E0,-3.732612796E0,6.861532152E-2,-1.937591485E-1,3.738268176E0
8.417096083E0,-3.880857547E0,4.849838537E-1,1.806603257E-1,3.915214272E0
8.427176083E0,-3.661884584E0,5.026634949E-1,4.629124419E-1,3.725098283E0
8.437256083E0,-2.708504550E0,6.120923817E-2,2.161329710E-1,2.717803696E0
8.447335083E0,-1.391011235E0,-3.800327647E-1,-4.919297612E-1,1.523591824E0
8.457415083E0,-4.046161038E-1,-7.659852505E-1,-1.211765277E0,1.489571308E0
8.467495083E0,3.888238341E-1,-1.162014243E0,-1.842383977E0,2.212654468E0
8.477575083E0,1.001176198E0,-1.341351855E0,-1.924814515E0,2.550782134E0
8.487655083E0,1.438935453E0,-1.469584803E0,-1.494848868E0,2.542594712E0
8.497735083E0,1.823277908E0,-1.594537463E0,-8.559996271E-1,2.568973999E0
8.507815083E0,2.133569177E0,-1.745906088E0,-2.062102826E-1,2.764566545E0
8.517895083E0,2.335875237E0,-1.880840530E0,3.706994390E-1,3.021802822E0
8.527975083E0,2.432602510E0,-2.005330090E0,7.596000910E-1,3.242822234E0
8.538055083E0,2.568980629E0,-1.897097543E0,9.806751287E-1,3.340713138E0
8.548135083E0,2.855960219E0,-1.471275233E0,8.965699482E-1,3.335415605E0
8.558214083E0,3.066204459E0,-1.022114346E0,1.351899648E-1,3.234903994E0
8.568294083E0,2.503768387E0,-3.515240800E-1,-1.042501833E0,2.734819077E0
8.578374083E0,1.336794389E0,6.293820137E-1,-2.457936741E0,2.867855293E0
8.588454083E0,4.682541657E-1,1.172634541E0,-3.915958090E0,4.114494075E0
8.598534083E0,2.452705237E-1,1.197453632E0,-4.675148292E0,4.832293905E0
8.608614083E0,3.835712438E-1,9.423583245E-1,-3.745100695E0,3.880843378E0
8.618694083E0,7.127576809E-1,6.300158519E-1,-1.968331248E0,2.186154475E0
8.628774083E0,1.360025816E0,2.835425967E-1,-4.922917038E-1,1.473912394E0
8.638854083E0,1.872851918E0,7.648158073E-3,1.371102269E-1,1.877879659E0
8.648934083E0,1.817567078E0,-1.081343132E-1,-4.083572620E-1,1.866011460E0
8.659014083E0,1.731921887E0,-1.513557619E-1,-8.454524195E-1,1.933197296E0
8.669094083E0,2.038090577E0,-2.657460111E-1,-1.068548328E0,2.316512394E0
8.679173083E0,2.349468260E0,-1.387596899E-1,-1.950377957E0,3.056669680E0
8.689253083E0,2.595649779E0,-2.123492378E-1,-2.810254288E0,3.831451310E0
8.699333083E0,2.753396548E0,-4.571171933E-1,-2.878440424E0,4.009434867E0
8.709413083E0,2.565133161E0,-6.984627736E-1,-2.306475729E0,3.519600641E0
8.719493083E0,2.232402471E0,-9.486312175E-1,-1.530644352E0,2.868169122E0
8.729573083E0,1.994465086E0,-7.903155148E-1,-6.777403144E-1,2.249849223E0
8.739653083E0,1.900536437E0,-4.131075400E-1,-1.899358369E-2,1.945008315E0
8.749733083E0,1.862304564E0,-1.562200606E-1,4.234594506E-1,1.916220473E0
8.759813083E0,1.775468880E0,-6.118818820E-2,3.624203664E-1,1.813113968E0
8.769893083E0,1.564597233E0,-2.482862252E-1,-2.737894410E-1,1.607660166E0
8.779973083E0,8.944015083E-1,-4.611470944E-1,-6.537941390E-1,1.200023948E0
8.790052083E0,3.309688512E-1,-4.677871925E-1,-9.055635506E-1,1.071639203E0
8.800132083E0,-3.898832034E-2,1.821781898E-1,-1.007287488E0,1.024371547E0
8.810212083E0,-3.550551405E-1,1.372729769E0,-5.363615835E-1,1.515960065E0
8.820292083E0,-5.497824783E-1,2.288822985E0,1.064783818E-1,2.356333821E0
8.830372083E0,-6.665396804E-1,2.667842427E0,6.949661386E-1,2.836306806E0
8.840452083E0,-1.067981002E0,3.125133283E0,1.673711101E0,3.702478941E0
8.850532083E0,-1.675100400E0,3.371315680E0,2.632588395E0,4.593718801E0
8.860612083E0,-2.414260671E0,3.451264660E0,2.843958224E0,5.082123643E0
8.870692083E0,-2.731420373E0,3.620668437E0,2.225125757E0,5.051839449E0
8.880772083E0,-2.351820302E0,3.685391852E0,1.333867419E0,4.570817665E0
8.890851083E0,-1.606675405E0,3.615732218E0,7.901617330E-1,4.034759088E0
8.900931083E0,-1.053446139E0,3.348304548E0,2.703735342E-1,3.520510469E0
8.911011083E0,-7.139469315E-1,2.907802802E0,-2.254943633E-1,3.002646344E0
8.921091083E0,-7.780227672E-1,2.375202733E0,-3.204782885E-1,2.519843999E0
8.931171083E0,-9.743002018E-1,1.552763785E0,-7.341707328E-2,1.834591595E0
8.941251083E0,-1.115332704E0,6.061533648E-1,-5.738693157E-2,1.270701461E0
8.951331083E0,-1.245056692E0,-1.424218011E-1,-3.101947904E-1,1.290996105E0
8.961411083E0,-1.396496361E0,-8.270073777E-1,-5.579793245E-1,1.716241305E0
8.971491083E0,-1.458136101E0,-1.439947606E0,-5.097544134E-1,2.111743251E0
8.981571083E0,-1.463832020E0,-1.910104675E0,-2.722147858E-1,2.421859810E0
8.991651083E0,-1.382540520E0,-2.027821405E0,-8.075355649E-2,2.455605643E0
9.001730083E0,-1.238882909E0,-2.035934417E0,2.446941893E-2,2.383371260E0
9.011810083E0,-9.979923888E-1,-2.042465757E0,2.315614343E-1,2.285011132E0
9.021890083E0,-6.024856257E-1,-2.149336486E0,3.875148618E-1,2.265569251E0
9.031970083E0,-5.280914644E-2,-2.280143378E0,2.380179298E-1,2.293140896E0
9.042050083E0,4.142138698E-1,-2.597942473E0,5.780676166E-2,2.631391237E0
9.052130083E0,7.636153740E-1,-2.942517722E0,1.570679069E-2,3.040027251E0
9.062210083E0,9.099192877E-1,-3.189122288E0,-9.229943197E-2,3.317675882E0
9.072290083E0,1.076157091E0,-3.201128376E0,6.835738622E-2,3.377870585E0
9.082370083E0,1.245395831E0,-3.049451017E0,3.512328887E-1,3.312631404E0
9.092450083E0,1.265628805E0,-2.981802825E0,5.895232987E-1,3.292491773E0
9.102530083E0,1.312475381E0,-2.802956963E0,6.193908763E-1,3.156391044E0
9.112609083E0,1.409341963E0,-2.299384226E0,4.963315451E-1,2.742217641E0
9.122689083E0,1.879800749E0,-1.783629985E0,-1.239819487E-1,2.594293411E0
9.132769083E0,1.938435312E0,-9.928262275E-1,-1.453071681E0,2.618139165E0
9.142849083E0,1.903111989E0,-4.484270614E-1,-3.137320050E0,3.696714645E0
9.152929083E0,2.351239673E0,-1.402343577E-1,-4.367123988E0,4.961830872E0
9.163009083E0,3.413074448E0,-9.762277365E-2,-4.275303991E0,5.471456077E0
9.173089083E0,4.555749025E0,-5.607099742E-1,-3.279275243E0,5.641178155E0
9.183169083E0,5.199432451E0,-1.293442109E0,-1.475334370E0,5.557310663E0
9.193249083E0,5.352033085E0,-2.221123922E0,1.137040346E0,5.905125771E0
9.203329083E0,5.319313821E0,-2.941365820E0,3.705144624E0,7.118625506E0
9.213409083E0,5.076237465E0,-2.382098939E0,5.922340679E0,8.155777171E0
9.223488083E0,4.257991555E0,7.530289900E-1,8.314916074E0,9.372052820E0
9.233568083E0,2.584932418E0,5.759645997E0,9.138567735E0,1.110715165E1
9.243648083E0,6.525783567E-1,9.767153358E0,7.637575783E0,1.241594568E1
9.253728083E0,-2.244086231E0,1.083345453E1,6.742208022E0,1.295596500E1
9.263807625E0,-5.817367371E0,6.883446931E0,6.464372892E0,1.109106495E1
9.273887625E0,-8.620226685E0,4.928518671E-1,6.273950129E0,1.067303431E1
9.283967625E0,-9.893519289E0,-3.758762130E0,5.026802180E0,1.171660176E1
9.294047625E0,-9.348883311E0,-4.552531595E0,2.113511473E0,1.061103642E1
9.304127625E0,-7.691781226E0,-3.356122275E0,-1.003492134E0,8.451866753E0
9.314207625E0,-6.452623497E0,-2.409458061E0,-2.445141864E0,7.308936782E0
9.324287625E0,-5.845151585E0,-2.139137188E0,-2.000199012E0,6.537774931E0
9.334366625E0,-5.306274530E0,-2.507344544E0,-7.453852905E-1,5.915988952E0
9.344446625E0,-4.495657190E0,-2.376406674E0,7.223182440E-1,5.136145042E0
9.354526625E0,-3.932744862E0,-1.621467399E0,1.887803979E0,4.653970621E0
9.364606625E0,-2.912713586E0,-5.761781985E-1,1.678461964E0,3.410735451E0
9.374686625E0,-1.578693555E0,-4.484580517E-2,9.279070772E-2,1.582053919E0
9.384766625E0,-5.457586803E-1,1.683736153E0,-1.422643940E0,2.270844722E0
9.394846625E0,4.305625751E-1,3.415756273E0,-1.736347060E0,3.855862571E0
9.404926625E0,1.523633541E0,4.588715335E0,-1.020918006E0,4.941663805E0
9.415006625E0,2.515890250E0,3.482009320E0,-1.313202775E-1,4.297829413E0
9.425086625E0,3.219566401E0,1.870589191E0,6.978616798E-1,3.788366753E0
9.435166625E0,3.732914805E0,6.548758739E-1,1.245859222E0,3.989446146E0
9.445245625E0,3.999133271E0,-2.194974589E-1,1.346816078E0,4.225536606E0
9.455325625E0,4.053969629E0,-7.947541362E-1,1.242845567E0,4.314043231E0
9.465405625E0,3.923941294E0,-1.152678578E0,1.365142422E0,4.311565495E0
9.475485625E0,3.614500210E0,-1.305330668E0,1.339709373E0,4.069806030E0
9.485565625E0,3.288644237E0,-1.296267484E0,1.305905449E0,3.768405412E0
9.495645625E0,2.920014127E0,-1.228470188E0,1.236359836E0,3.400618642E0
9.505725625E0,2.565022941E0,-9.972537392E-1,7.998090541E-1,2.865929558E0
9.515805625E0,1.751085113E0,-5.716430980E-1,2.075229643E-1,1.853683006E0
9.525885625E0,7.632846408E-1,-1.548424566E-1,-5.166547126E-1,9.346184897E-1
9.535965625E0,-1.201034175E-1,8.172711790E-2,-1.118827293E0,1.128219245E0
9.546045625E0,-8.927195567E-1,1.723513591E-1,-1.461667673E0,1.721373168E0
9.556124625E0,-1.538617908E0,1.336848915E-2,-1.489741910E0,2.141694362E0
9.566204625E0,-1.909139592E0,6.432463467E-2,-1.505676742E0,2.432285775E0
9.576284625E0,-1.939244566E0,3.635284138E-1,-1.689566996E0,2.597587155E0
9.586364625E0,-1.776751028E0,4.840202326E-1,-1.946401266E0,2.679477130E0
9.596444625E0,-1.502092252E0,2.350130457E-1,-1.993038073E0,2.506733537E0
9.606524625E0,-9.471432473E-1,-2.833221567E-1,-1.579253426E0,1.863167507E0
9.616604625E0,-1.816839539E-1,-6.216420543E-1,-1.069021295E0,1.249901769E0
9.626684625E0,4.832915964E-1,-5.198145479E-1,-8.135552734E-1,1.079652775E0
9.636764625E0,1.093819336E0,-2.174503487E-1,-1.089882991E0,1.559349328E0
9.646844625E0,1.643833876E0,-9.981489480E-2,-1.551110192E0,2.262320855E0
9.656924625E0,2.082491994E0,-2.178561455E-1,-1.704069260E0,2.699645579E0
9.667003625E0,2.385785608E0,-4.248633671E-1,-1.578872772E0,2.892286479E0
9.677083625E0,2.587168393E0,-8.082424933E-1,-1.580226987E0,3.137485228E0
9.687163625E0,2.790336041E0,-1.290707951E0,-1.845342084E0,3.585692352E0
9.697243625E0,3.022840631E0,-1.574905436E0,-2.118682897E0,4.013316562E0
9.707323625E0,3.184980705E0,-1.735983363E0,-2.145173269E0,4.214203208E0
9.717403625E0,3.305397094E0,-1.777178752E0,-1.887851341E0,4.200951911E0
9.727483625E0,3.373297886E0,-1.650592965E0,-1.514476216E0,4.049349821E0
9.737563625E0,3.390748317E0,-1.022031316E0,-9.765323764E-1,3.673600092E0
9.747643625E0,3.225854789E0,1.192516243E-1,-3.527688792E-1,3.247276697E0
9.757723625E0,2.633145050E0,1.089352648E0,-8.587929882E-2,2.850880092E0
9.767803625E0,2.054018978E0,1.438910310E0,9.144453250E-2,2.509545565E0
9.777882625E0,1.418822639E0,2.000894392E0,7.559349831E-1,2.566724322E0
9.787962625E0,7.193991677E-1,2.935887564E0,8.593459886E-1,3.142522311E0
9.798042625E0,1.644891199E-2,3.473726739E0,6.488620857E-1,3.533846350E0
9.808122625E0,-8.812977518E-1,3.377228969E0,5.772078931E-1,3.537729525E0
9.818202625E0,-2.000056925E0,3.044931119E0,9.329501545E-1,3.760615536E0
9.828282625E0,-2.873885443E0,2.959862902E0,1.409740305E0,4.359744679E0
9.838362625E0,-3.300583082E0,3.159801425E0,1.694731842E0,4.873428951E0
9.848442625E0,-3.321361455E0,3.534268225E0,1.357862054E0,5.036495126E0
9.858522625E0,-3.164660461E0,3.967458612E0,5.523934063E-1,5.104991885E0
9.868602625E0,-2.760542430E0,3.962146416E0,-2.955709040E-1,4.838032750E0
9.878682625E0,-2.114118414E0,2.983468696E0,-3.930246931E-1,3.677641981E0
9.888761625E0,-1.490541955E0,1.823706801E0,1.154233061E-2,2.355367283E0
9.898841625E0,-8.592208582E-1,9.090110689E-1,8.434257746E-2,1.253664739E0
9.908921625E0,-3.075217723E-1,5.551580429E-2,-5.203466445E-1,6.069697483E-1
9.919001625E0,1.711488244E-1,-7.717137676E-1,-1.322938389E0,1.541103513E0
9.929081625E0,4.668620533E-1,-1.453861640E0,-2.234822195E0,2.706677684E0
9.939161625E0,5.961943505E-1,-1.878879958E0,-2.917506841E0,3.521006074E0
9.949241625E0,6.370121185E-1,-2.052190261E0,-2.942238225E0,3.643354921E0
9.959321625E0,5.115971999E-1,-2.124301633E0,-2.029571477E0,2.982205476E0
9.969401625E0,3.578254051E-1,-2.288248789E0,-1.051244078E0,2.543469216E0
9.979481625E0,2.213002834E-1,-2.456052184E0,-3.474193712E-1,2.490354666E0
9.989561625E0,6.490222081E-2,-2.406950190E0,2.434476542E-1,2.420100881E0
9.999640625E0,-2.302985271E-3,-2.201801798E0,7.746034616E-1,2.334083757E0
1.000972063E1,-5.206774233E-2,-1.892717979E0,1.129810118E0,2.204895304E0
1.001980063E1,7.718203149E-2,-1.485492153E0,8.628443778E-1,1.719634968E0
1.002988063E1,3.199046036E-1,-1.074468561E0,5.492991328E-2,1.122425471E0
1.003996062E1,5.338099682E-1,-5.328503305E-1,-1.279128710E0,1.484942024E0
1.005004063E1,7.981094147E-1,-8.509745300E-2,-3.153689915E0,3.254224991E0
1.006012063E1,8.636360908E-1,5.412445933E-1,-4.223055611E0,4.344307965E0
1.007020063E1,6.818722493E-1,9.821948200E-1,-3.473634353E0,3.673661939E0
1.008028062E1,7.760211191E-1,1.108650799E0,-2.105105224E0,2.502555369E0
1.009036063E1,1.070914038E0,1.305607241E0,-1.212980256E0,2.079131609E0
1.010044063E1,1.412504576E0,1.467112015E0,-8.238036883E-1,2.196870356E0
1.011052063E1,1.883013794E0,1.420456497E0,-3.736313061E-1,2.388103423E0
1.012059963E1,2.336685954E0,8.371938121E-1,1.053143181E0,2.696313276E0
1.013067962E1,2.689089455E0,-2.628867227E-1,3.007766801E0,4.043138961E0
1.014075963E1,2.849853972E0,-1.741731176E0,4.401132563E0,5.524967239E0
1.015083963E1,2.517781532E0,-3.627468165E0,4.832998556E0,6.546420714E0
1.016091963E1,1.614889866E0,-5.286668816E0,4.043459551E0,6.848817532E0
1.017099962E1,6.831144903E-1,-6.267367918E0,2.882883139E0,6.932356109E0
1.018107963E1,-2.352270538E-1,-6.271786659E0,2.366634808E0,6.707577802E0
1.019115963E1,-1.007442513E0,-5.123979396E0,2.279217764E0,5.697801232E0
1.020123963E1,-1.446013507E0,-3.056579357E0,2.385315492E0,4.138038476E0
1.021131962E1,-1.546921247E0,-7.438547087E-1,2.357045374E0,2.915810019E0
1.022139963E1,-1.634383898E0,1.735749475E0,2.268807381E0,3.291128059E0
1.023147863E1,-1.811750122E0,3.822449418E0,2.241811956E0,4.787408370E0
1.024155863E1,-2.275544105E0,5.182947981E0,2.211929176E0,6.077308732E0
1.025163863E1,-2.758575135E0,5.389966312E0,2.078860581E0,6.401807162E0
1.026171862E1,-3.490690973E0,4.205974724E0,1.470875283E0,5.660266862E0
1.027179858E1,-4.800650882E0,4.305156366E0,1.311732785E0,6.580369528E0
1.028187858E1,-5.882676677E0,3.304514750E0,4.580030465E-1,6.762800411E0
1.029195858E1,-5.837764798E0,1.805920156E0,-1.354974114E0,6.259137344E0
1.030203858E1,-5.167037707E0,7.898635250E-1,-2.717259586E0,5.891151221E0
1.031211858E1,-4.568327263E0,5.637072569E-1,-3.190364821E0,5.600518507E0
1.032219858E1,-3.648345356E0,1.149659661E0,-1.662790257E0,4.170972621E0
1.033227858E1,-2.362123973E0,1.638519049E0,1.723308939E0,3.351741046E0
1.034235758E1,-9.755026086E-1,1.503488129E0,4.969812877E0,5.283097759E0
1.035243758E1,3.090330217E-1,1.111034709E0,6.675593618E0,6.774470435E0
1.036251758E1,1.300174593E0,4.070539176E-1,6.248718224E0,6.395516109E0
1.037259758E1,2.004378309E0,-1.219892907E-1,4.687945508E0,5.099926164E0
1.038267758E1,2.478746689E0,-4.941914642E-1,3.219824848E0,4.093370543E0
1.039275758E1,2.612473681E0,-8.138733619E-1,1.760442851E0,3.253700603E0
1.040283758E1,2.378910891E0,-1.043950773E0,2.844097205E-1,2.613415224E0
1.041291758E1,2.207745932E0,-1.210349666E0,-1.341148957E0,2.852677503E0
1.042299758E1,2.015586691E0,-1.579157531E0,-3.053884960E0,3.985290650E0
1.043307758E1,1.478695788E0,-2.219660949E0,-5.007299961E0,5.673313747E0
1.044315758E1,8.982903818E-2,-2.416438467E0,-5.338496781E0,5.860613620E0
1.045323658E1,-6.156804525E-1,-1.729955469E0,-3.040515302E0,3.551977146E0
1.046331658E1,-4.747436980E-1,-1.398435298E0,-1.763802661E0,2.300435326E0
1.047339658E1,-4.879098004E-1,-1.540584034E0,-1.289674748E0,2.067538657E0
1.048347658E1,-5.560320920E-1,-1.775478966E0,-8.470685899E-1,2.044265747E0
1.049355658E1,-4.437278004E-1,-1.857955112E0,-3.634553967E-1,1.944477150E0
1.050363658E1,-4.981302948E-1,-1.783776165E0,-1.740687229E-1,1.860185775E0
1.051371658E1,-1.728736251E-1,-1.575642185E0,-1.619064778E-1,1.593344688E0
1.052379658E1,6.022422353E-1,-1.458796105E0,-4.922565474E-1,1.653208485E0
1.053387658E1,1.316232363E0,-1.131470727E0,-1.293579519E0,2.164726683E0
1.054395658E1,1.690343506E0,-9.630106902E-1,-2.193601078E0,2.931985070E0
1.055403658E1,2.018586751E0,-9.702542210E-1,-2.549224057E0,3.393321237E0
1.056411658E1,2.415862516E0,-9.821591520E-1,-2.449557681E0,3.577898983E0
1.057419558E1,2.628321389E0,-9.193770128E-1,-2.092373496E0,3.483009369E0
1.058427558E1,2.499872972E0,-9.667301041E-1,-2.079676852E0,3.392489908E0
1.059435558E1,2.055164009E0,-1.149488922E0,-2.527282380E0,3.454298787E0
1.060443558E1,1.704207255E0,-1.459349252E0,-3.028488749E0,3.769053821E0
1.061451558E1,1.690722844E0,-1.664507584E0,-3.145596784E0,3.940039132E0
1.062459558E1,1.950578224E0,-9.398978162E-1,-2.440219678E0,3.262335879E0
1.063467558E1,2.000451027E0,9.695087010E-1,-5.622197253E-1,2.292998572E0
1.064475558E1,1.897139790E0,3.078590031E0,1.651575882E0,3.975494794E0
1.065483558E1,1.989712908E0,3.839833775E0,3.054775491E0,5.294802562E0
1.066491558E1,2.258934065E0,2.252717598E0,2.634875826E0,4.137643086E0
1.067499558E1,2.460060157E0,1.470245538E0,1.180312520E0,3.099460528E0
1.068507558E1,2.380366701E0,1.954903117E0,6.401502460E-1,3.146042620E0
1.069515458E1,1.930359576E0,2.188415768E0,1.050787922E0,3.101549116E0
1.070523458E1,1.506649134E0,2.680471829E0,9.579534334E-1,3.220651427E0
1.071531458E1,1.019979308E0,3.542881758E0,6.012007731E-1,3.735480064E0
1.072539458E1,1.870018869E-1,4.175207845E0,4.840518075E-1,4.207331269E0
1.073547458E1,-5.492605412E-1,4.283436883E0,5.005473876E-1,4.347420656E0
1.074555458E1,-1.136863468E0,4.153067363E0,7.275275284E-1,4.366889439E0
1.075563458E1,-1.429940096E0,4.101406628E0,7.429413736E-1,4.406611724E0
1.076571458E1,-1.608553531E0,3.435149149E0,9.822556311E-1,3.918229225E0
1.077579458E1,-1.703960502E0,2.477686881E0,1.431194324E0,3.330274894E0
1.078587458E1,-1.757561636E0,1.572781143E0,1.770991813E0,2.949419507E0
1.079595458E1,-1.624367472E0,1.043330968E0,1.523257565E0,2.459150829E0
1.080603358E1,-1.241304826E0,6.765327913E-1,7.015723228E-1,1.578207215E0
1.081611358E1,-5.898417527E-1,4.523762709E-1,-2.660616877E-1,7.895228973E-1
1.082619358E1,5.594387529E-2,7.351411879E-2,-1.530022793E0,1.532809118E0
1.083627358E1,3.603044418E-1,-4.981845278E-1,-2.613508930E0,2.684853077E0
1.084635358E1,2.393803310E-1,-7.938887483E-1,-2.835867432E0,2.954607652E0
1.085643358E1,1.909072422E-1,-1.157645788E0,-2.253690575E0,2.540809035E0
1.086651358E1,1.584882321E-1,-1.857420677E0,-1.543193062E0,2.420036140E0
1.087659358E1,1.873527381E-2,-2.395499003E0,-8.992544780E-1,2.558793681E0
1.088667358E1,-7.511597265E-2,-2.640597911E0,-4.307147489E-1,2.676549071E0
1.089675358E1,-2.758528366E-2,-2.719175134E0,-3.969218624E-1,2.748130514E0
1.090683358E1,3.717249950E-2,-2.986216888E0,-8.136564302E-1,3.095304489E0
1.091691358E1,1.320363878E-1,-3.393315829E0,-1.583081598E0,3.746755032E0
1.092699258E1,2.844956563E-1,-3.471712958E0,-2.552669236E0,4.318547078E0
1.093707258E1,3.889329943E-1,-3.245939682E0,-3.158988662E0,4.546053526E0
1.094715258E1,3.333104418E-1,-2.729086164E0,-2.655327047E0,3.822272736E0
1.095723258E1,4.110600644E-1,-2.181159958E0,-1.245736431E0,2.545248199E0
1.096731258E1,6.845326594E-1,-1.826391258E0,5.994331598E-2,1.951379817E0
1.097739258E1,1.126477936E0,-1.573172321E0,6.769485283E-1,2.049898291E0
1.098747258E1,1.768111767E0,-1.550396832E0,8.446069121E-1,2.498661720E0
1.099755258E1,2.409504839E0,-1.751746872E0,7.187900341E-1,3.064472187E0
1.100763258E1,2.936916674E0,-1.795516790E0,3.210695151E-1,3.457230933E0
1.101771258E1,3.225008697E0,-1.832645440E0,8.491914947E-2,3.710320965E0
1.102779258E1,3.071387723E0,-1.666472248E0,4.415618455E-1,3.522148374E0
1.103787258E1,2.519930091E0,-1.457918438E0,7.827739222E-1,3.014682214E0
1.104795158E1,1.657668096E0,-1.172930410E0,4.848113608E-1,2.087743116E0
1.105803158E1,7.303737337E-1,-7.155512613E-1,-2.362591604E-1,1.049417834E0
1.106811158E1,-2.695405617E-2,5.004403836E-1,-6.852854884E-1,8.489895754E-1
1.107819158E1,-7.023369925E-1,2.557921205E0,-1.258477221E0,2.935984172E0
1.108827158E1,-9.926004519E-1,5.561552271E0,8.098276734E-2,5.650015710E0
1.109835158E1,-1.310039285E0,9.172620749E0,3.454799302E0,9.888822607E0
1.110843158E1,-2.330664199E0,1.185028065E1,5.068119775E0,1.309759463E1
1.111851158E1,-3.890976446E0,9.810816271E0,4.937615769E0,1.165211840E1
1.112859158E1,-4.933148496E0,2.809361418E0,3.770178233E0,6.814888816E0
1.113867158E1,-5.194142475E0,-2.746417896E0,2.268201902E0,6.298147917E0
1.114875158E1,-5.172272719E0,-5.313849598E0,1.397190865E0,7.545962161E0
1.115883158E1,-5.203727231E0,-6.198256168E0,9.037502559E-1,8.143335996E0
1.116891058E1,-5.559111643E0,-5.437270287E0,8.165659317E-1,7.818849682E0
1.117899058E1,-5.966963705E0,-3.013243303E0,1.145884626E0,6.782134077E0
1.118907058E1,-5.560820199E0,-1.044605076E-2,1.828337796E0,5.853686830E0
1.119915058E1,-4.546099365E0,1.758331422E0,2.925503494E0,5.684832409E0
1.120923058E1,-3.199197333E0,1.636658465E0,3.741483607E0,5.187698342E0
1.121931058E1,-1.771891553E0,6.243194944E-1,3.929172213E0,4.355200201E0
1.122939058E1,-6.531103802E-1,-1.026332527E-1,3.662920418E0,3.722105955E0
1.123947058E1,8.061461203E-2,-4.965531546E-1,3.175309410E0,3.214911134E0
1.124955058E1,6.540834300E-1,-5.106227249E-1,2.486192826E0,2.621014206E0
1.125963058E1,1.170078138E0,-2.862668145E-1,1.367050953E0,1.822048256E0
1.126971458E1,1.662687346E0,4.855878711E-2,-2.471731346E-2,1.663579908E0
1.127979358E1,2.051278680E0,4.245312452E-1,-8.896994698E-1,2.275859431E0
1.128987358E1,2.293230470E0,7.419689816E-1,-8.590764320E-1,2.558795864E0
1.129995358E1,2.460049632E0,7.490178001E-1,-3.155321288E-1,2.590836232E0
1.131003358E1,2.538781807E0,3.813700229E-1,3.276147787E-1,2.588085702E0
1.132011358E1,2.546997145E0,-2.513220996E-1,8.499430811E-1,2.696805609E0
1.133019358E1,2.539005755E0,-5.639218497E-1,1.329389037E0,2.920930209E0
1.134027358E1,2.476527379E0,-4.632380587E-1,1.688413925E0,3.032906022E0
1.135035358E1,2.384553308E0,-7.641726136E-2,1.786914951E0,2.980771564E0
1.136043358E1,1.986244924E0,2.328133231E-1,1.584203094E0,2.551287985E0
1.137051358E1,1.365582425E0,5.392471844E-1,1.170889732E0,1.877920565E0
1.138059358E1,7.509443115E-1,5.683405906E-1,5.469959146E-1,1.089097294E0
1.139067358E1,2.290386896E-1,2.180970508E-1,-3.417767715E-1,4.656569622E-1
1.140075358E1,-3.201502597E-1,-1.348578429E-1,-1.400417504E0,1.442862437E0
1.141083258E1,-8.487053718E-1,-3.282942617E-1,-2.362940537E0,2.532107010E0
1.142091258E1,-1.245342913E0,-3.609614861E-1,-2.906273755E0,3.182388931E0
1.143099258E1,-1.398893428E0,-3.861501217E-2,-2.837973599E0,3.164251584E0
1.144107258E1,-1.253034341E0,2.076194251E-1,-2.503905212E0,2.807622160E0
1.145115258E1,-3.333565252E-1,2.946295023E-1,-2.393824945E0,2.434816417E0
1.146123258E1,7.020345452E-1,3.064636821E-1,-2.148202127E0,2.280689560E0
1.147131258E1,1.459223391E0,2.660407108E-1,-1.498496361E0,2.108459605E0
1.148139258E1,1.892788146E0,1.224839652E-1,-6.967946360E-1,2.020686035E0
1.149147258E1,2.160484057E0,-1.934913826E-1,-1.100861504E-1,2.171922935E0
1.150155258E1,2.315781427E0,-6.679245204E-1,8.101960480E-2,2.411541200E0
1.151163258E1,2.363087156E0,-1.068968085E0,-8.617279250E-2,2.595052875E0
1.152171258E1,2.265558084E0,-1.386908097E0,-5.047434226E-1,2.703892273E0
1.153179158E1,1.993158233E0,-1.285360672E0,-8.890008006E-1,2.532815474E0
1.154187158E1,1.550191010E0,-8.154690671E-1,-1.077429079E0,2.056437547E0
1.155195158E1,1.135048200E0,-6.004786420E-1,-1.209167433E0,1.763801263E0
1.156203158E1,8.506632388E-1,-5.835725874E-1,-1.338170385E0,1.689640462E0
1.157211158E1,6.683455930E-1,-7.777749914E-1,-1.677457997E0,1.966083696E0
1.158219158E1,6.782889294E-1,-1.078994890E0,-2.239645563E0,2.576881466E0
1.159227158E1,1.014298519E0,-1.362096022E0,-2.710448749E0,3.198537085E0
1.160235158E1,1.587604273E0,-1.392843606E0,-2.902914530E0,3.589904373E0
1.161243158E1,2.222092075E0,-1.309261166E0,-2.827281380E0,3.826928010E0
1.162251158E1,2.774688307E0,-9.387845063E-1,-2.421389304E0,3.800439147E0
1.163259158E1,2.981235937E0,-4.423558974E-1,-1.568178799E0,3.397444804E0
1.164267158E1,3.053182125E0,4.503162968E-1,-4.312888724E-1,3.116202167E0
1.165275058E1,3.071846437E0,1.736084520E0,6.273407507E-1,3.583822877E0
1.166283058E1,2.892887140E0,2.524882683E0,1.115618341E0,3.998553845E0
1.167291058E1,2.575683000E0,2.397533834E0,7.715348428E-1,3.602440480E0
1.168299058E1,2.216235504E0,1.982441749E0,9.583173495E-2,2.975056103E0
1.169307058E1,1.833069363E0,1.806170416E0,-3.710959168E-1,2.600020585E0
1.170315058E1,1.233308759E0,1.748373613E0,-1.896427818E-1,2.147981651E0
1.171323058E1,3.842764545E-1,1.811540499E0,2.568570739E-1,1.869578276E0
1.172331058E1,-4.766412291E-1,2.081762554E0,3.672448675E-1,2.166977385E0
1.173339058E1,-1.166622434E0,2.544122946E0,3.526783204E-1,2.820984130E0
1.174347058E1,-1.718782024E0,3.207220005E0,3.254226941E-1,3.653268637E0
1.175355058E1,-2.205586409E0,3.964405780E0,3.619279943E-1,4.551056632E0
1.176363058E1,-2.713826686E0,3.880690024E0,6.977751410E-1,4.786595919E0
1.177370958E1,-3.288714696E0,2.847588760E0,1.023178539E0,4.468926093E0
1.178378958E1,-3.566477028E0,1.370372756E0,1.282944603E0,4.030338290E0
1.179386958E1,-3.288441631E0,4.294961160E-1,8.174156052E-1,3.415623449E0
1.180394958E1,-2.650195823E0,2.364964843E-2,1.205707745E-1,2.653042502E0
1.181402958E1,-1.821676355E0,-2.436371040E-1,-3.123483199E-1,1.864249247E0
1.182410958E1,-9.983343047E-1,-6.263870698E-1,-5.324766934E-1,1.293276295E0
1.183418958E1,-4.396759723E-1,-9.313550341E-1,-5.535529822E-1,1.169255346E0
1.184426958E1,-2.301909931E-1,-9.907516354E-1,-3.300963736E-1,1.069364443E0
1.185434958E1,-2.329748525E-1,-8.077033800E-1,-1.332416817E-1,8.511259470E-1
1.186442958E1,-2.919550589E-1,-5.762992358E-1,-1.638074076E-1,6.664768807E-1
1.187450958E1,-2.426958119E-1,-5.524595529E-1,-4.105868053E-1,7.298591230E-1
1.188458958E1,-1.971098955E-1,-7.200097632E-1,-6.558014882E-1,9.936508250E-1
1.189466958E1,-1.952162564E-1,-8.354431558E-1,-8.317336822E-1,1.194929107E0
1.190474858E1,-2.924175737E-1,-9.522032815E-1,-8.384018469E-1,1.301966506E0
1.191482858E1,-4.319491326E-1,-1.017961653E0,-6.403402074E-1,1.277834716E0
1.192490858E1,-5.107194232E-1,-9.309925067E-1,-4.594215810E-1,1.157000245E0
1.193498858E1,-5.460233033E-1,-9.038181567E-1,-2.219929775E-1,1.079031784E0
1.194506858E1,-4.272487387E-1,-7.999692678E-1,2.347890973E-2,9.072174896E-1
1.195514858E1,-3.618808146E-1,-6.296585870E-1,5.975854397E-2,7.286966061E-1
1.196522858E1,-2.376267145E-1,-3.769413418E-1,-3.508294308E-1,5.671265468E-1
1.197530858E1,4.277625628E-2,-3.333515185E-1,-8.519158586E-1,9.158131213E-1
1.198538858E1,4.375764199E-1,-3.894795263E-1,-1.149263147E0,1.289950854E0
1.199546858E1,9.221476429E-1,-5.409113020E-1,-1.606440493E0,1.929661206E0
1.200554858E1,1.419822513E0,-7.844074881E-1,-1.844145305E0,2.456025851E0
1.201562858E1,1.820964018E0,-1.121872523E0,-1.390583803E0,2.551123522E0
1.202570858E1,2.100061415E0,-1.476223732E0,-3.276594003E-1,2.587828267E0
1.203578758E1,2.330241445E0,-1.786688079E0,8.337087254E-1,3.052433410E0
1.204586758E1,2.347859398E0,-2.469597843E0,1.830490741E0,3.868081386E0
1.205594758E1,2.030237182E0,-3.620035769E0,2.333885868E0,4.761674624E0
1.206602758E1,1.517451280E0,-4.473838597E0,2.106866551E0,5.172695317E0
1.207610758E1,7.381184439E-1,-5.001577291E0,1.283526109E0,5.216132045E0
1.208618758E1,-1.659447111E-2,-4.943599809E0,4.880881405E-1,4.967663886E0
1.209626758E1,-5.232473751E-1,-4.484821422E0,-1.600289369E-1,4.518077054E0
1.210634758E1,-8.173237308E-1,-3.615880737E0,-8.023711579E-1,3.792942270E0
1.211642758E1,-1.100003790E0,-1.692994634E0,-1.604092544E0,2.578633758E0
1.212650758E1,-1.148676159E0,1.563793972E0,-1.384115613E0,2.383418666E0
1.213658758E1,-1.093693329E0,6.021196631E0,-2.852447212E-1,6.126364216E0
1.214666758E1,-1.226047102E0,1.080941545E1,1.203568943E-1,1.087939060E1
1.215674658E1,-1.852242237E0,1.315789115E1,1.373835916E0,1.335845522E1
1.216682658E1,-2.661194436E0,7.448416602E0,2.152893494E0,8.197305417E0
1.217690658E1,-2.254260678E0,-1.099230350E0,1.190367099E0,2.776143440E0
1.218698658E1,-1.719798855E0,-3.806371329E0,8.840054512E-1,4.269383613E0
1.219706658E1,-8.632870120E-1,-3.495957853E0,1.614446501E0,3.946317686E0
1.220714658E1,-4.205628131E-1,-1.889164626E0,3.204170097E0,3.743330345E0
1.221722658E1,-3.515816020E-1,-2.462736136E-1,4.670686866E0,4.690370573E0
1.222730658E1,-3.877125708E-1,9.194916183E-1,5.641986569E0,5.729554810E0
1.223738658E1,-5.770794006E-1,1.582547162E0,5.792767550E0,6.032713489E0
1.224746658E1,-9.343556059E-1,1.427656758E0,4.926203173E0,5.213319664E0
1.225754658E1,-1.287647811E0,6.441935956E-1,3.549763931E0,3.830645669E0
1.226762350E1,-1.760662706E0,-1.207140130E-1,2.152691034E0,2.783627800E0
1.227770350E1,-2.223149544E0,-6.137535757E-1,1.127669452E0,2.567240881E0
1.228778250E1,-2.437269173E0,-5.963066536E-1,5.290151417E-1,2.564316608E0
1.229786250E1,-2.368343510E0,-1.808982342E-1,2.182333275E-1,2.385246515E0
1.230794250E1,-2.030902303E0,5.601650137E-1,1.280236538E-1,2.110625278E0
1.231802250E1,-1.594222590E0,1.143678544E0,9.107038379E-2,1.964138512E0
1.232810250E1,-1.203670977E0,1.293874218E0,7.303753417E-2,1.768691266E0
1.233818250E1,-8.662603211E-1,1.116396605E0,5.570287865E-2,1.414160930E0
1.234826250E1,-3.473617761E-1,8.483029372E-1,1.032664879E-1,9.224651995E-1
1.235834250E1,3.869109906E-1,5.365200430E-1,1.860233370E-1,6.871379433E-1
1.236842250E1,1.077431053E0,2.216305232E-1,1.635887218E-1,1.112087691E0
1.237850250E1,1.646296285E0,-1.489671743E-1,-3.781039875E-2,1.653454657E0
1.238858250E1,2.158452296E0,-6.588467181E-1,-4.679398048E-1,2.304769614E0
1.239866250E1,2.620186450E0,-9.783906215E-1,-7.816078413E-1,2.904055106E0
1.240874150E1,3.032805456E0,-1.104280005E0,-8.526936114E-1,3.338327374E0
1.241882150E1,3.351700611E0,-1.005795937E0,-6.843382394E-1,3.565647385E0
1.242890150E1,3.471486086E0,-9.236203372E-1,-3.720741194E-1,3.611471905E0
1.243898150E1,3.023041190E0,-8.326160270E-1,-8.751177748E-2,3.136827346E0
1.244906150E1,1.765657106E0,-6.056265306E-1,-2.114090238E-1,1.878569212E0
1.245914150E1,7.651511452E-1,-4.354479969E-1,-6.026000118E-1,1.066863631E0
1.246922150E1,1.921562074E-1,-4.753061271E-1,-9.792215109E-1,1.105312033E0
1.247930150E1,-1.689349041E-1,-6.755101132E-1,-1.337033102E0,1.507484803E0
1.248938150E1,-3.713965733E-1,-6.164643449E-1,-1.537813039E0,1.697890646E0
1.249946150E1,-3.582411421E-1,-3.354863369E-1,-1.369900301E0,1.455168249E0
1.250954150E1,-1.366547288E-1,-1.512481731E-1,-1.133763421E0,1.151941847E0
1.251962150E1,1.360760372E-1,-2.231250715E-1,-9.087496984E-1,9.455831533E-1
1.252970150E1,3.708113036E-1,-4.874367607E-1,-8.319365805E-1,1.033060546E0
1.253978050E1,6.136458407E-1,-7.391751820E-1,-1.116743930E0,1.473111731E0
1.254986050E1,8.501475875E-1,-8.071093029E-1,-1.712106843E0,2.074966551E0
1.255994050E1,1.003342883E0,-7.696707505E-1,-2.423027694E0,2.733158102E0
1.257002050E1,1.109929146E0,-7.626131612E-1,-3.012084970E0,3.299420769E0
1.258010050E1,1.197325725E0,-9.537165409E-1,-3.224144186E0,3.569071288E0
1.259018050E1,1.242299584E0,-1.123342513E0,-2.764260675E0,3.232080403E0
1.260026050E1,1.224142444E0,-1.561420587E0,-1.676120739E0,2.597294690E0
1.261034050E1,1.226356273E0,-1.871009606E0,-3.953746891E-1,2.271771952E0
1.262042050E1,1.137945495E0,-1.755012542E0,7.555978180E-1,2.223941779E0
1.263050050E1,1.013114458E0,-1.219065526E0,1.534504684E0,2.206179115E0
1.264058050E1,9.210170107E-1,-7.323082119E-1,1.980587012E0,2.303751845E0
1.265066050E1,1.046701449E0,-2.663283938E-1,1.656978709E0,1.977901206E0
1.266074050E1,1.357056892E0,1.052831524E0,7.238070913E-1,1.863854697E0
1.267081950E1,1.449637027E0,2.058866027E0,4.157219032E-1,2.552097476E0
1.268089950E1,1.353960353E0,2.885990934E0,2.015868527E-1,3.194180578E0
1.269097950E1,1.059920396E0,3.801259693E0,-3.355950952E-2,3.946407574E0
1.270105950E1,3.874574860E-1,4.126058489E0,-1.568253205E-1,4.147176888E0
1.271113950E1,-4.230756905E-1,4.154449060E0,-2.917819083E-2,4.176037763E0
1.272121950E1,-9.125798439E-1,4.124171593E0,2.613008116E-1,4.232005601E0
1.273129950E1,-1.142408456E0,3.786949802E0,5.171493870E-1,3.989176528E0
1.274137950E1,-1.252335598E0,3.250073079E0,5.360399866E-1,3.524011682E0
1.275145950E1,-1.198524988E0,2.573260791E0,5.250554073E-1,2.886835019E0
1.276153950E1,-9.896000263E-1,1.594113539E0,7.308691391E-1,2.013622578E0
1.277161950E1,-6.705474351E-1,6.656025910E-1,8.010637935E-1,1.238694423E0
1.278169950E1,-1.802206881E-1,1.994719148E-2,4.659382298E-1,4.999758203E-1
1.279177950E1,4.099261431E-1,-2.441808951E-1,-2.202277762E-1,5.255131071E-1
1.280185850E1,7.777425393E-1,-4.198482102E-1,-1.162687258E0,1.460478564E0
1.281193850E1,7.505765216E-1,-2.958100551E-1,-1.794592345E0,1.967595077E0
1.282201850E1,4.729217056E-1,-7.252593935E-2,-1.964869696E0,2.022282838E0
1.283209850E1,1.983744838E-1,1.278423536E-1,-1.823993315E0,1.839197574E0
1.284217850E1,1.394752795E-2,2.790665531E-1,-1.557899394E0,1.582758098E0
1.285225850E1,-1.692082797E-1,2.340120023E-1,-1.212303221E0,1.246223158E0
1.286233850E1,-4.275720897E-1,1.111789584E-1,-1.014225283E0,1.106269215E0
1.287241850E1,-7.505956712E-1,-1.267617881E-1,-7.841537189E-1,1.092867543E0
1.288249850E1,-9.919244407E-1,-4.939014423E-1,-5.679049730E-1,1.245138060E0
1.289257850E1,-1.042545687E0,-1.026139569E0,-4.085724396E-1,1.518813801E0
1.290265850E1,-1.103467388E0,-1.280738449E0,-3.131914884E-1,1.719308047E0
1.291273850E1,-1.116457124E0,-1.458989648E0,-2.182718825E-1,1.850072949E0
1.292281850E1,-1.140515493E0,-1.391663053E0,-2.914638380E-1,1.822759669E0
1.293289750E1,-1.099468331E0,-9.721703535E-1,-4.611605795E-1,1.538380606E0
1.294297750E1,-1.020622210E0,-4.041665626E-1,-5.638411216E-1,1.234073383E0
1.295305750E1,-8.659573623E-1,5.063688755E-4,-7.454545069E-1,1.142621911E0
1.296313750E1,-4.776783059E-1,2.845214206E-1,-9.088677391E-1,1.065443368E0
1.297321750E1,1.593341049E-1,4.735332513E-1,-8.938017301E-1,1.023964174E0
1.298329750E1,8.786337604E-1,4.265204680E-1,-1.230672834E0,1.571137365E0
1.299337750E1,1.676522443E0,1.792890805E-1,-1.305206122E0,2.132237111E0
1.300345750E1,2.257758044E0,-2.506414837E-1,-5.807700169E-1,2.344693232E0
1.301353750E1,2.373699414E0,-8.286890370E-1,8.801216575E-1,2.663792139E0
1.302361750E1,2.303098524E0,-1.508289278E0,2.204200326E0,3.526712128E0
1.303369750E1,1.971113061E0,-2.433605307E0,2.875757722E0,4.251788326E0
1.304377750E1,7.713792338E-1,-3.809981984E0,3.103771065E0,4.974372671E0
1.305385750E1,-2.919096699E-1,-4.437189419E0,2.327500563E0,5.019075618E0
1.306393750E1,-1.125282473E0,-4.343418206E0,1.269777843E0,4.663033147E0
1.307401650E1,-1.735942579E0,-3.112319695E0,3.347952691E-1,3.579401960E0
1.308409650E1,-1.790829223E0,-1.410741348E0,-5.154636347E-1,2.337298273E0
1.309417650E1,-1.565947063E0,-1.225950623E-1,-1.362082135E0,2.079059282E0
1.310425650E1,-1.086403605E0,2.259463531E-1,-2.435573480E0,2.676442177E0
1.311433650E1,-2.648006260E-1,-8.957723880E-1,-3.601515298E0,3.720677355E0
1.312441650E1,3.841160215E-1,-1.575660312E0,-3.775248939E0,4.108862992E0
1.313449650E1,4.221920666E-1,-4.391814440E-1,-2.173013617E0,2.256793004E0
1.314457650E1,3.556214433E-2,1.115482686E0,-6.584011602E-1,1.295784849E0
1.315465650E1,-3.652011925E-1,2.571717126E0,2.068674000E-1,2.605742698E0
1.316473650E1,-7.631014037E-1,3.100576147E0,2.163971483E0,3.857287748E0
1.317481650E1,-1.028905814E0,2.141296565E0,3.874713878E0,4.545019889E0
1.318489650E1,-1.060335914E0,1.013925321E0,4.045446435E0,4.303253846E0
1.319497650E1,-1.053987226E0,4.986680925E-1,3.212899990E0,3.417935822E0
1.320505550E1,-1.156498418E0,7.066038519E-1,2.912783461E0,3.212644562E0
1.321513550E1,-1.362067517E0,1.168568387E0,3.304364476E0,3.760266558E0
1.322521550E1,-1.575919051E0,1.271071832E0,3.693990183E0,4.212446786E0
1.323529550E1,-1.807503582E0,1.457881601E0,3.724122055E0,4.388800866E0
1.324537550E1,-2.119601933E0,1.692954288E0,3.582404258E0,4.493598430E0
1.325545550E1,-2.521919606E0,1.542328259E0,3.411677256E0,4.514243752E0
1.326553521E1,-3.013014677E0,1.150875297E0,3.357118056E0,4.655428341E0
1.327561521E1,-3.392461551E0,1.108784115E0,3.196401486E0,4.791156442E0
1.328569521E1,-3.314845903E0,1.413870778E0,2.669324112E0,4.484699003E0
1.329577521E1,-2.485573021E0,1.672938100E0,1.721845965E0,3.455654592E0
1.330585521E1,-1.470513048E0,1.660684674E0,9.058974266E-1,2.396024282E0
1.331593521E1,-6.162794998E-1,1.528140575E0,3.522152209E-1,1.684953887E0
1.332601521E1,4.594868140E-2,1.303330336E0,-1.477696554E-1,1.312485092E0
1.333609521E1,6.500886123E-1,9.237378663E-1,-8.383433747E-1,1.406672124E0
1.334617421E1,1.193445366E0,1.268302006E-1,-1.608643870E0,2.007020888E0
1.335625421E1,1.511568688E0,-8.777272958E-1,-2.226612704E0,2.830732986E0
1.336633421E1,1.437507124E0,-1.600819126E0,-2.260235948E0,3.120531228E0
1.337641421E1,1.192021715E0,-1.836577692E0,-1.515012406E0,2.662554409E0
1.338649421E1,1.084621374E0,-1.891774238E0,-6.475440502E-1,2.274758578E0
1.339657421E1,1.158724015E0,-2.081440372E0,-1.061521437E-1,2.384597166E0
1.340665421E1,1.308792804E0,-2.206615226E0,8.848627992E-3,2.565573554E0
1.341673421E1,1.433749411E0,-2.182980781E0,4.223034561E-2,2.612053955E0
1.342681421E1,1.566540556E0,-2.071532266E0,9.180537879E-2,2.598792694E0
1.343689421E1,1.664891308E0,-1.859929132E0,8.495715637E-2,2.497682358E0
1.344697421E1,1.729135982E0,-1.567318674E0,-2.158523047E-1,2.343713141E0
1.345705421E1,1.724930079E0,-1.152127771E0,-9.269362932E-1,2.272001996E0
1.346713421E1,1.652640660E0,-7.233046693E-1,-2.126265128E0,2.788439382E0
1.347721321E1,1.739937251E0,-3.905957597E-1,-2.820070594E0,3.336576814E0
1.348729321E1,1.897712817E0,-4.187553656E-1,-2.884130350E0,3.477769093E0
1.349737321E1,2.072877271E0,-5.851332092E-1,-2.354059201E0,3.190735930E0
1.350745321E1,2.241607011E0,-9.576756907E-1,-1.998963057E0,3.152427323E0
1.351753321E1,2.386236575E0,-1.227914702E0,-1.875106750E0,3.273824191E0
1.352761321E1,2.637729559E0,-1.209329912E0,-1.734804565E0,3.380775494E0
1.353769321E1,2.889798348E0,-1.104224457E0,-1.358712239E0,3.378808235E0
1.354777321E1,2.986928786E0,-9.763429266E-1,-8.278973240E-1,3.249677378E0
1.355785321E1,2.889933711E0,-9.188934481E-1,-4.335634392E-1,3.063341196E0
1.356793321E1,2.675413110E0,-7.036013067E-1,-6.464389265E-2,2.767140933E0
1.357801321E1,2.414634747E0,-5.408803117E-1,-8.688553154E-2,2.475997086E0
1.358809321E1,2.011624179E0,-1.049008030E-1,-5.634792155E-1,2.091684690E0
1.359817321E1,1.209207121E0,1.053281760E0,-1.281931280E0,2.053029988E0
1.360825321E1,-3.900787197E-2,2.877274489E0,-1.973808920E0,3.489434303E0
1.361833221E1,-1.136200832E0,3.762427164E0,-1.838327764E0,4.338923768E0
1.362841221E1,-1.790716810E0,3.511690956E0,-1.085217497E0,4.088561737E0
1.363849221E1,-2.231289015E0,3.088652505E0,-5.885544151E-1,3.855492350E0
1.364857221E1,-2.603909849E0,3.046036828E0,-1.854882985E-1,4.011619718E0
1.365865221E1,-2.681956437E0,3.375999885E0,3.266950482E-1,4.324002221E0
1.366873221E1,-2.116933849E0,3.697579789E0,6.947959846E-1,4.316971933E0
1.367881221E1,-9.707629287E-1,3.772486714E0,9.018049604E-1,3.998410792E0
1.368889221E1,-8.063858561E-3,3.787255611E0,8.998566681E-1,3.892699849E0
1.369897221E1,5.827737115E-1,3.351792997E0,8.606423163E-1,3.509251585E0
1.370905221E1,8.436888993E-1,2.495213910E0,1.011829678E0,2.821648936E0
1.371913221E1,8.759083001E-1,1.485540685E0,9.774843031E-1,1.982302207E0
1.372921221E1,8.108347832E-1,4.890997088E-1,4.540128700E-1,1.050142494E0
1.373929221E1,5.540967733E-1,1.657112610E-1,-2.547999869E-1,6.319861466E-1
1.374937221E1,2.185772534E-1,5.312370837E-2,-9.111803859E-1,9.385349433E-1
1.375945121E1,6.338315529E-2,-3.239936346E-1,-1.527385114E0,1.562656260E0
1.376953121E1,5.562211398E-2,-6.287961227E-1,-1.954054686E0,2.053486815E0
1.377961121E1,8.643854845E-2,-8.743265551E-1,-1.848997763E0,2.047122682E0
1.378969121E1,-4.786032806E-3,-1.145636192E0,-1.314129558E0,1.743399463E0
1.379977121E1,-2.494457281E-1,-1.393156432E0,-7.298728466E-1,1.592426572E0
1.380985121E1,-3.872415776E-1,-1.757886449E0,-3.078389472E-1,1.826166921E0
1.381993121E1,-4.131720056E-1,-2.101457731E0,-7.033440292E-2,2.142844518E0
1.383001121E1,-4.330159937E-1,-2.309346712E0,2.963018060E-2,2.349779359E0
1.384009121E1,-4.913970067E-1,-2.500058329E0,-1.224307646E-1,2.550833581E0
1.385017121E1,-6.173831617E-1,-2.389426669E0,-5.384086937E-1,2.525946496E0
1.386025121E1,-7.595329942E-1,-2.006627587E0,-1.082473984E0,2.403163450E0
1.387033121E1,-8.061703131E-1,-1.470613913E0,-1.863036343E0,2.506695089E0
1.388041121E1,-7.463159479E-1,-9.590544641E-1,-2.706941589E0,2.967205036E0
1.389049121E1,-5.231718729E-1,-2.521664375E-1,-3.610791321E0,3.657199842E0
1.390057021E1,1.947660025E-1,2.869439220E-1,-4.200881799E0,4.215172417E0
1.391065021E1,1.071089016E0,3.102889305E-1,-3.777082626E0,3.938256475E0
1.392073021E1,1.649235534E0,-2.580434740E-2,-2.068351965E0,2.645510076E0
1.393081021E1,2.132928322E0,-5.173826909E-1,2.255395330E-2,2.194897892E0
1.394089021E1,2.592560403E0,-1.024224021E0,1.540958841E0,3.185115137E0
1.395097021E1,2.814763076E0,-1.625354043E0,2.089715352E0,3.864139904E0
1.396105021E1,2.982099279E0,-2.282336669E0,2.243655145E0,4.374467417E0
1.397113021E1,2.890161168E0,-3.445481763E0,2.020686486E0,4.930268759E0
1.398121021E1,2.449815543E0,-5.093817118E0,1.532625243E0,5.856407531E0
1.399129021E1,1.960873709E0,-5.875475246E0,8.291796184E-1,6.249301874E0
1.400137021E1,1.219220770E0,-5.280163788E0,2.205715925E-3,5.419098982E0
1.401145021E1,2.482276800E-1,-2.992969252E0,-1.026055369E0,3.173684223E0
1.402153021E1,-5.498522063E-1,5.425660640E-1,-1.997028944E0,2.141223946E0
1.403161021E1,-8.096016055E-1,5.093357527E0,-5.198066542E-1,5.183429812E0
1.404168921E1,-1.250042320E0,1.133175892E1,2.522658402E0,1.167626531E1
1.405176921E1,-2.174350144E0,1.619761883E1,4.714863750E0,1.700942664E1
1.406184921E1,-3.353661182E0,1.345940633E1,6.086055701E0,1.514736730E1
1.407192921E1,-4.260797341E0,2.968631971E0,4.920180541E0,7.153694593E0
1.408200921E1,-4.704027397E0,-3.697254099E0,2.991219181E0,6.689166900E0
1.409208921E1,-4.781164451E0,-6.327859118E0,1.763333276E0,8.124695611E0
1.410216921E1,-4.764936966E0,-6.412226838E0,1.679155444E0,8.163384122E0
1.411224921E1,-4.777697637E0,-4.530601612E0,2.753096001E0,7.136685734E0
1.412232921E1,-4.686539545E0,-1.868923320E0,3.954471946E0,6.410489502E0
1.413240921E1,-4.627896942E0,5.496218991E-1,4.778545775E0,6.674879330E0
1.414248921E1,-4.293984091E0,2.273545380E0,5.637076077E0,7.442038341E0
1.415256921E1,-3.675907084E0,2.190100350E0,5.874077761E0,7.267298121E0
1.416264921E1,-2.715493434E0,7.349365354E-1,4.943185827E0,5.687628893E0
1.417272921E1,-1.574635295E0,-2.205499578E-1,3.264587038E0,3.631204638E0
1.418280821E1,-5.582933199E-1,-3.094235426E-1,1.198911928E0,1.358243046E0
1.419288821E1,4.467019136E-1,-5.177592516E-2,-1.105156430E0,1.193144618E0
1.420296821E1,1.513182812E0,3.057941759E-1,-3.122207336E0,3.483017507E0
1.421304821E1,2.386168016E0,6.343731970E-1,-4.176385474E0,4.851641246E0
1.422312821E1,2.922346582E0,7.910458320E-1,-3.395392760E0,4.549126845E0
1.423320821E1,2.939947870E0,8.629858804E-1,-1.148384968E0,3.272128687E0
1.424328821E1,2.759334688E0,4.264526403E-1,3.611439558E-1,2.815353394E0
1.425336821E1,2.683977527E0,-1.810824215E-1,1.057570692E0,2.890498569E0
1.426344821E1,2.644069695E0,-6.027268964E-1,1.719135196E0,3.210889299E0
1.427352821E1,2.486772577E0,-7.133503693E-1,2.082294066E0,3.320972023E0
1.428360821E1,2.383030693E0,-8.056755656E-1,1.928408214E0,3.169654025E0
1.429368821E1,2.364143748E0,-7.877415705E-1,1.094070182E0,2.721525676E0
1.430376821E1,2.384110673E0,-6.378557986E-1,-1.669485319E-1,2.473603755E0
1.431384821E1,2.396002010E0,-4.997685385E-1,-1.378916123E0,2.809271061E0
1.432392721E1,2.232905185E0,-3.027430987E-1,-2.134984496E0,3.104138809E0
1.433400721E1,1.540706387E0,2.940564752E-1,-2.137760754E0,2.651464958E0
1.434408721E1,8.958194581E-1,9.338512105E-1,-1.610129063E0,2.065692665E0
1.435416721E1,6.042591593E-1,7.724651349E-1,-1.217812468E0,1.563617192E0
1.436424721E1,3.865923174E-1,3.334591073E-1,-1.186273171E0,1.291469176E0
1.437432721E1,3.522002374E-1,1.653949267E-1,-1.464993569E0,1.515785818E0
1.438440721E1,6.544203027E-1,2.062482530E-1,-1.702748959E0,1.835799088E0
1.439448721E1,1.155750413E0,5.506264508E-1,-1.459985429E0,1.941779071E0
1.440456721E1,1.598297368E0,9.170428044E-1,-7.758050644E-1,1.999348764E0
1.441464721E1,1.860105134E0,9.374571884E-1,-2.679176853E-1,2.100142132E0
1.442472721E1,1.895141796E0,4.431382549E-1,-2.603647820E-1,1.963599694E0
1.443480721E1,1.832574834E0,-4.145272440E-1,-5.542183954E-1,1.958908214E0
1.444488721E1,1.615656144E0,-1.218428764E0,-9.813808876E-1,2.249004641E0
1.445496721E1,1.381489336E0,-1.851606790E0,-1.553963633E0,2.784198891E0
1.446504721E1,1.063852648E0,-2.160129277E0,-2.163029496E0,3.236763438E0
1.447512621E1,7.240846878E-1,-2.069713781E0,-2.673425934E0,3.457632137E0
1.448520621E1,5.519775230E-1,-1.961600518E0,-3.167431456E0,3.766321522E0
1.449528621E1,7.233263040E-1,-2.114275997E0,-3.538692813E0,4.185177506E0
1.450536621E1,1.097020248E0,-2.190749391E0,-3.307002740E0,4.115714208E0
1.451544621E1,1.400230393E0,-2.131420033E0,-2.327390050E0,3.452584678E0
1.452552621E1,1.698893013E0,-1.771799313E0,-9.578616321E-1,2.634959047E0
1.453560621E1,1.884097429E0,-1.027220135E0,3.914640347E-1,2.181340968E0
1.454568621E1,1.958099498E0,-7.246512830E-2,1.341296307E0,2.374548509E0
1.455576621E1,2.146962371E0,6.110252649E-1,1.372033950E0,2.620167257E0
1.456584621E1,2.394476325E0,1.170630700E0,3.008105940E-1,2.682234166E0
1.457592621E1,2.332177750E0,1.897236122E0,-5.765331244E-1,3.061200485E0
1.458600621E1,1.771157874E0,2.268630211E0,-2.142817608E-1,2.886104627E0
1.459608621E1,9.202634507E-1,2.152960591E0,3.451131928E-1,2.366691201E0
1.460616621E1,-1.438475715E-1,1.984647903E0,1.708006044E-1,1.997171067E0
1.461624521E1,-1.098799921E0,2.153826563E0,-1.216337435E-1,2.420976022E0
1.462632521E1,-1.703290704E0,2.567315342E0,6.390882455E-2,3.081621590E0
1.463640521E1,-2.039247157E0,3.238999037E0,4.640500908E-1,3.855513742E0
1.464648521E1,-2.323985509E0,3.875072604E0,8.524118487E-1,4.598228169E0
1.465656521E1,-2.676410353E0,3.946001084E0,1.138677421E0,4.902110076E0
1.466664521E1,-3.008670196E0,3.466770891E0,1.194193152E0,4.743067999E0
1.467672521E1,-3.047686912E0,2.536936718E0,1.114591497E0,4.119072423E0
1.468680521E1,-2.726119872E0,1.359146102E0,8.815741058E-1,3.171148149E0
1.469688521E1,-2.283581980E0,3.143305260E-1,5.303320078E-1,2.365333460E0
1.470696521E1,-1.439707285E0,-4.532492602E-1,1.334755611E-1,1.515258290E0
1.471704521E1,-5.532799172E-1,-7.892559993E-1,-4.201716343E-1,1.051469401E0
1.472712521E1,8.636381373E-2,-6.687460542E-1,-9.580206764E-1,1.171530456E0
1.473720521E1,2.948324738E-1,-2.659763914E-1,-1.018116093E0,1.092808312E0
1.474728521E1,4.171886042E-2,1.190300149E-1,-4.997754820E-1,5.154455744E-1
1.475736521E1,-3.034164787E-1,1.800673449E-1,-7.899347149E-2,3.615601980E-1
1.476744521E1,-4.710546166E-1,-4.678883493E-2,1.780699360E-1,5.057574013E-1
1.477752421E1,-6.206711242E-1,-3.449564874E-1,2.413812482E-1,7.499950197E-1
1.478760421E1,-6.506575464E-1,-6.417564762E-1,1.553406394E-1,9.270044938E-1
1.479768421E1,-8.412278062E-1,-9.885600990E-1,3.579164024E-1,1.346484104E0
1.480776421E1,-1.399675639E0,-1.418801150E0,7.728512704E-1,2.137612613E0
1.481784421E1,-2.014522644E0,-1.905603488E0,8.145077848E-1,2.890164194E0
1.482792421E1,-2.374729693E0,-2.505536000E0,6.177479549E-1,3.506945152E0
1.483800421E1,-2.588187563E0,-3.014101675E0,4.732772894E-1,4.000939284E0
1.484808421E1,-2.676585477E0,-3.115329257E0,3.499196041E-1,4.122114739E0
1.485816421E1,-2.560173553E0,-2.458099878E0,-2.316630296E-1,3.556741682E0
1.486824421E1,-2.149526229E0,-1.305806047E0,-1.409138042E0,2.882926024E0
1.487832421E1,-1.258395068E0,-1.366453367E-1,-2.771866733E0,3.047207784E0
1.488840421E1,3.210923193E-1,6.724701458E-1,-3.963490691E0,4.032936255E0
1.489848421E1,2.128523176E0,6.884733903E-1,-4.130800581E0,4.697671760E0
1.490856421E1,3.400783601E0,-8.287317216E-2,-2.511692241E0,4.228568904E0
1.491864421E1,3.730905409E0,-1.276018576E0,1.564469326E-1,3.946182234E0
1.492872321E1,3.407399433E0,-3.182288647E0,2.987841829E0,5.537556385E0
1.493880321E1,2.597050480E0,-5.500061197E0,4.511063726E0,7.572650811E0
1.494888321E1,2.025398026E0,-6.658821464E0,3.838940320E0,7.948559822E0
1.495896321E1,1.590831790E0,-6.465582097E0,2.959681638E0,7.286577594E0
1.496904321E1,5.133443480E-1,-3.274940702E0,3.382596713E0,4.736108059E0
1.497912321E1,-3.222718488E-2,1.579955676E0,4.107759043E0,4.401247878E0
1.498920321E1,-7.344924393E-1,5.755894423E0,3.952610192E0,7.020892186E0
1.499928321E1,-1.926973892E0,8.736434834E0,3.271900735E0,9.525956981E0
1.500936321E1,-2.808008958E0,7.560051059E0,1.891335551E0,8.283503877E0
1.501944321E1,-2.165643932E0,2.747309012E0,1.986870722E-1,3.503883132E0
1.502952321E1,-9.352446020E-1,1.109959406E-1,-3.805533130E-1,1.015787078E0
1.503960321E1,-2.584814304E-1,-3.366008162E-1,-1.056486619E-1,4.373492873E-1
1.504968321E1,-3.283985249E-1,3.996507579E-1,3.338594954E-1,6.156528909E-1
1.505976321E1,-1.315411268E0,6.104545766E-1,1.079240620E0,1.807684129E0
1.506984321E1,-2.027100736E0,8.368172514E-1,1.171379728E0,2.486268484E0
1.507992221E1,-2.099067389E0,1.084770770E0,1.236171556E0,2.666633016E0
1.509000221E1,-1.780263450E0,9.441352934E-1,1.582225127E0,2.562062793E0
1.510008221E1,-1.261473919E0,6.707031173E-1,2.265585566E0,2.678439299E0
1.511016221E1,-7.194610021E-1,5.024483174E-1,3.042499262E0,3.166524941E0
1.512024221E1,-2.151361852E-1,3.299940473E-1,3.405094460E0,3.427805119E0
1.513032221E1,1.915541818E-1,8.415663600E-2,3.300146295E0,3.306771978E0
1.514040221E1,7.422783724E-1,1.178330898E-2,2.670900521E0,2.772151804E0
1.515048221E1,1.276070324E0,2.283086282E-1,1.720193542E0,2.153960567E0
1.516056221E1,1.624885974E0,4.385493600E-1,5.517783888E-1,1.771168924E0
1.517064221E1,1.786952665E0,4.178613263E-1,-6.301719725E-1,1.940341370E0
1.518072221E1,1.825695147E0,2.086122823E-1,-1.628264787E0,2.455183918E0
1.519080221E1,1.788343572E0,8.631659746E-3,-2.486155404E0,3.062550559E0
1.520088221E1,1.695540512E0,-1.064696109E-1,-3.003421150E0,3.450613280E0
1.521096221E1,1.550767545E0,-8.180547059E-2,-2.871598012E0,3.264605223E0
1.522104221E1,1.359635806E0,1.428696978E-1,-2.054356070E0,2.467670995E0
1.523112121E1,1.195288189E0,2.749699938E-1,-1.117221063E0,1.659067586E0
1.524120121E1,1.286523099E0,5.913113773E-2,-4.991586739E-1,1.381230450E0
1.525128121E1,1.354058732E0,-2.590930492E-1,-3.089709681E-1,1.412822465E0
1.526136121E1,1.361839622E0,-6.437690878E-1,-3.211203128E-1,1.540183122E0
1.527144100E1,1.341695379E0,-9.292564684E-1,-4.630521172E-1,1.696490890E0
1.528152100E1,1.352018931E0,-9.679808235E-1,-6.858228475E-1,1.798692593E0
1.529160100E1,1.414219564E0,-8.637846100E-1,-9.713938433E-1,1.920871372E0
1.530168100E1,1.526181173E0,-6.848656583E-1,-1.331656587E0,2.138125162E0
1.531176100E1,1.747084302E0,-3.960646605E-1,-1.624707926E0,2.418438881E0
1.532184100E1,1.974601218E0,-3.000206351E-1,-1.556811227E0,2.532335591E0
1.533192100E1,2.051482163E0,-1.684623760E-1,-1.228753193E0,2.397246972E0
1.534200100E1,2.019832939E0,-2.405649769E-1,-9.849177953E-1,2.260013202E0
1.535208100E1,1.964946734E0,-3.637623024E-1,-1.134734058E0,2.298033956E0
1.536216100E1,1.768709206E0,-4.067820221E-1,-1.927596036E0,2.647532879E0
1.537224100E1,1.484362325E0,-4.705628657E-1,-3.131627201E0,3.497406160E0
1.538232100E1,1.249960752E0,-5.152315003E-1,-4.112701110E0,4.329223464E0
1.539240000E1,1.065785957E0,-4.328360456E-1,-4.743869448E0,4.881346544E0
1.540248000E1,8.771015706E-1,-5.419760799E-1,-5.037249985E0,5.141685779E0
1.541256000E1,8.765631882E-1,-6.273302257E-1,-4.758569348E0,4.879127839E0
1.542264000E1,1.153043956E0,-1.884844118E-1,-3.695347322E0,3.875645568E0
1.543272000E1,1.475149598E0,5.832392961E-1,-2.209234194E0,2.719733468E0
1.544280000E1,1.514850292E0,1.778140034E0,-4.753289312E-1,2.383797596E0
1.545288000E1,1.207535986E0,2.304017560E0,8.959390336E-1,2.751244596E0
1.546296000E1,6.109097093E-1,1.433616241E0,1.233997561E0,1.987766631E0
1.547304000E1,2.978202548E-2,5.201314670E-1,9.244541502E-1,1.061149937E0
1.548312000E1,-4.569433849E-1,2.530265629E-2,7.081369919E-1,8.431461799E-1
1.549320000E1,-5.947451547E-1,7.114225423E-1,3.759367901E-1,1.000585980E0
1.550328000E1,-1.823044165E-1,1.576797595E0,-1.648622682E-2,1.587386957E0
1.551336000E1,1.821383556E-1,2.389616704E0,2.246968031E-1,2.407058584E0
1.552344000E1,5.010343876E-1,3.459927894E0,9.221140945E-1,3.615581682E0
1.553352000E1,8.344371423E-1,4.257438408E0,1.642575263E0,4.638978405E0
1.554360000E1,1.112782368E0,4.112177199E0,2.316877341E0,4.849351145E0
1.555367900E1,1.233946398E0,3.036445055E0,2.520133574E0,4.134452263E0
1.556375900E1,8.804613076E-1,1.553689983E0,1.663633425E0,2.440664019E0
1.557383900E1,6.131946550E-1,3.301495832E-1,2.784701554E-1,7.500347056E-1
1.558391900E1,3.983672210E-1,-9.079544771E-1,-1.053241414E0,1.446511407E0
1.559399900E1,1.886573432E-1,-1.926445888E0,-1.803577176E0,2.645690077E0
1.560407900E1,-7.381905109E-2,-2.283646445E0,-2.127346863E0,3.121873638E0
1.561415900E1,-5.066168705E-1,-2.067659070E0,-1.821476673E0,2.801723033E0
1.562423900E1,-9.395352888E-1,-1.705449788E0,-1.117846130E0,2.245187188E0
1.563431900E1,-1.198798346E0,-1.377176576E0,-4.409549046E-1,1.878343425E0
1.564439900E1,-1.395374866E0,-1.010292445E0,4.171520591E-2,1.723224303E0
1.565447900E1,-1.543266152E0,-5.048240411E-1,9.681001067E-2,1.626619165E0
1.566455900E1,-1.686799801E0,-1.212642360E-1,-2.716849915E-1,1.712837213E0
1.567463900E1,-1.772455517E0,-1.309776306E-2,-8.751340556E-1,1.976772553E0
1.568471900E1,-1.816208039E0,-1.587185758E-1,-1.396462448E0,2.296499640E0
1.569479900E1,-1.816246631E0,-6.698634571E-1,-1.646236789E0,2.541173831E0
1.570487900E1,-1.478763470E0,-1.587192775E0,-1.361025982E0,2.560920543E0
1.571495800E1,-9.643203203E-1,-2.618011871E0,-8.587806360E-1,2.919144398E0
1.572503800E1,-6.224645383E-1,-3.222995208E0,-3.172419278E-1,3.297848185E0
1.573511800E1,-4.239742979E-1,-3.327779067E0,4.044192354E-1,3.378967688E0
1.574519800E1,-2.146458779E-1,-2.898556600E0,7.790211061E-1,3.009082435E0
1.575527800E1,3.019195915E-1,-2.200765087E0,4.774334172E-1,2.272105868E0
1.576535800E1,1.190365491E0,-1.543702354E0,-6.759860766E-1,2.063236326E0
1.577543800E1,2.086349256E0,-1.337910184E0,-1.445085262E0,2.868994300E0
1.578551800E1,2.804938585E0,-1.310970308E0,-1.467563274E0,3.426377909E0
1.579559800E1,3.283107801E0,-1.013691432E0,-1.102798905E0,3.608674629E0
1.580567800E1,3.551480674E0,-4.313186932E-1,4.317781381E-1,3.603537588E0
1.581575800E1,3.121522043E0,1.096931809E-1,3.999687295E0,5.074783829E0
1.582583800E1,1.824664283E0,1.050460478E0,8.217078123E0,8.482525558E0
1.583591800E1,5.013162965E-1,1.797467421E0,9.495936692E0,9.677552418E0
1.584599800E1,-1.263443116E0,1.545940084E0,7.849793458E0,8.099720772E0
1.585607800E1,-3.828692490E0,3.887228966E-3,6.198295344E0,7.285448954E0
1.586615800E1,-6.000609754E0,-2.396555595E0,4.770347979E0,8.031625986E0
1.587623800E1,-6.591208355E0,-2.390587342E0,3.375263135E0,7.781473939E0
1.588631700E1,-6.225379062E0,7.043029726E-2,2.226314350E0,6.611866641E0
1.589639700E1,-6.240135096E0,2.358442274E0,1.672468422E0,6.877404059E0
1.590647700E1,-6.591656837E0,4.652114355E0,1.776695187E0,8.261280386E0
1.591655700E1,-7.063177477E0,6.701782127E0,1.871607192E0,9.914901574E0
1.592663700E1,-6.316846472E0,6.792522728E0,9.854651678E-1,9.328025298E0
1.593671700E1,-3.475319228E0,3.778114659E0,-1.168690082E0,5.264772609E0
1.594679700E1,-1.069499962E0,1.977388585E0,-1.837907349E0,2.903756052E0
1.595687700E1,5.175750643E-1,2.000428369E0,-1.816940403E-1,2.074273447E0
1.596695700E1,1.463117198E0,2.065731243E0,2.159167410E0,3.327155152E0
1.597703700E1,2.135385615E0,1.703733045E0,3.391586223E0,4.354932275E0
1.598711700E1,2.676796854E0,9.853353596E-1,3.322308412E0,4.378796678E0
1.599719700E1,2.990337421E0,1.740710253E-1,2.777284763E0,4.084816919E0
1.600727700E1,3.087632166E0,-5.774014360E-1,1.975391761E0,3.710665361E0
1.601735700E1,3.058845738E0,-1.149252695E0,1.285871719E0,3.511521762E0
1.602743700E1,2.924321479E0,-1.574834685E0,4.118439567E-1,3.346845655E0
1.603751600E1,2.718674320E0,-1.881513544E0,-6.676806915E-1,3.372992852E0
1.604759600E1,2.418203449E0,-2.096660090E0,-1.799726200E0,3.671880424E0
1.605767600E1,1.609544049E0,-2.216261378E0,-2.449657084E0,3.674679084E0
1.606775600E1,2.195412765E-1,-1.761825718E0,-3.082662617E0,3.557391888E0
1.607783600E1,-1.002088802E0,-9.033427781E-1,-3.918587583E0,4.144338161E0
1.608791600E1,-1.601463928E0,-5.456177258E-1,-4.274610511E0,4.597247050E0
1.609799600E1,-1.701457894E0,-7.487476587E-1,-3.875256792E0,4.298045745E0
1.610807600E1,-1.566132274E0,-1.212144177E0,-2.975084959E0,3.573960592E0
1.611815600E1,-1.242664596E0,-1.706848442E0,-2.011369094E0,2.916016553E0
1.612823600E1,-6.563287608E-1,-1.774737539E0,-1.660394068E0,2.517413203E0
1.613831600E1,1.927456433E-1,-1.661506793E0,-1.529260316E0,2.266361141E0
1.614839600E1,1.158415136E0,-1.445696003E0,-1.290259470E0,2.257594308E0
1.615847600E1,2.012205100E0,-1.382106364E0,-1.057739604E0,2.660451171E0
1.616855600E1,2.583425298E0,-1.411614922E0,-1.021326653E0,3.116063397E0
1.617863600E1,2.993759211E0,-1.779315909E0,-1.874747731E0,3.955153395E0
1.618871600E1,3.238192121E0,-2.558460318E0,-3.615641586E0,5.486754186E0
1.619879600E1,3.119843599E0,-3.037494630E0,-4.902830098E0,6.557251001E0
1.620887500E1,2.511008702E0,-2.590838106E0,-4.778904210E0,5.987948917E0
1.621895500E1,2.065389035E0,-1.357046952E0,-3.642227122E0,4.401502777E0
1.622903500E1,1.754006821E0,1.681672086E0,-1.964660951E0,3.124812568E0
1.623911500E1,1.262785158E0,5.752126477E0,3.800356883E-1,5.901356835E0
1.624919500E1,1.262512093E0,9.296266556E0,2.918818957E0,9.825172404E0
1.625927500E1,1.592897026E0,9.518724461E0,3.283695738E0,1.019441484E1
1.626935496E1,1.686337871E0,6.127827040E0,1.078404906E0,6.446468552E0
1.627943496E1,1.374388185E0,3.195065398E0,-5.916411602E-1,3.528090849E0
1.628951496E1,6.991065520E-1,1.668895919E0,-7.445014107E-1,1.956590379E0
1.629959496E1,1.305432556E-1,1.213343441E0,-8.437304145E-1,1.483618839E0
1.630967496E1,-3.212906861E-1,1.069200220E0,-5.553486621E-1,1.246927805E0
1.631975496E1,-3.837113942E-1,7.144911611E-1,3.371446073E-1,8.782929691E-1
1.632983496E1,-3.356966905E-2,2.630334878E-1,1.008992025E0,1.043253777E0
1.633991496E1,3.089116920E-1,2.284279114E-1,1.284800509E0,1.341013830E0
1.634999496E1,5.560392183E-1,1.714380240E-1,1.809349548E0,1.900609480E0
1.636007496E1,7.210340492E-1,-6.401151627E-1,2.402358956E0,2.588622428E0
1.637015396E1,7.924335225E-1,-1.661559418E0,2.727450113E0,3.290549302E0
1.638023396E1,7.037906103E-1,-2.457364883E0,2.627297249E0,3.665604211E0
1.639031396E1,4.807328548E-1,-2.849120731E0,1.951700013E0,3.486793076E0
1.640039396E1,6.960320860E-2,-2.958153176E0,7.552673042E-1,3.053840782E0
1.641047396E1,-4.936621084E-1,-2.879116947E0,-1.834189506E-1,2.926885577E0
1.642055396E1,-1.057961725E0,-2.702526357E0,-4.591689813E-1,2.938327394E0
1.643063396E1,-1.520315246E0,-2.050369438E0,-5.210044563E-1,2.605152380E0
1.644071396E1,-1.789775555E0,-6.174262118E-1,-8.143031323E-1,2.060970949E0
1.645079396E1,-2.355976503E0,1.241369146E0,-1.735081723E0,3.178385002E0
1.646087396E1,-3.075645081E0,2.549685402E0,-2.982799190E0,4.985737591E0
1.647095396E1,-3.717067389E0,2.430296368E0,-3.199184761E0,5.473364006E0
1.648103396E1,-4.132785126E0,1.277956928E0,-2.018662326E0,4.773686667E0
1.649111396E1,-4.515252379E0,1.377241480E-1,-6.565769020E-1,4.564818202E0
1.650119396E1,-4.960398275E0,-5.575922388E-1,1.087465167E-1,4.992823446E0
1.651127396E1,-5.115416148E0,-8.346736622E-1,2.164755448E-1,5.187583653E0
