"Time (s)","Linear Acceleration x (m/s^2)","Linear Acceleration y (m/s^2)","Linear Acceleration z (m/s^2)","Absolute acceleration (m/s^2)"
1.153758334E-2,-1.072262406E-2,1.094727409E-1,1.123938636E-1,1.572629526E-1
2.161858333E-2,-1.513434827E-2,1.392771685E-1,1.117803445E-1,1.792261800E-1
3.169958334E-2,2.931209207E-3,1.007329077E-1,1.146288157E-1,1.526285558E-1
4.178058333E-2,1.922915339E-2,7.252827823E-2,1.223307681E-1,1.435093318E-1
5.186158334E-2,1.406021476E-2,4.955047488E-2,1.430233334E-1,1.520151739E-1
6.194258333E-2,-8.973137140E-3,3.561889887E-2,1.378609729E-1,1.426704980E-1
7.202358334E-2,-9.097682834E-3,1.164823830E-2,9.740277216E-2,9.851776141E-2
8.210458333E-2,8.622888923E-3,-9.166679978E-3,1.068888563E-1,1.076271798E-1
9.218558331E-2,-9.885887504E-3,-2.031498134E-2,1.426923810E-1,1.444698752E-1
1.022655833E-1,-2.035942018E-2,-1.180494368E-2,1.578604969E-1,1.596051352E-1
1.123465833E-1,-9.537393451E-3,3.200765848E-3,1.547505091E-1,1.550771642E-1
1.224275833E-1,-3.601300120E-3,1.379182756E-2,1.640904129E-1,1.647083709E-1
1.325085833E-1,-1.043143272E-2,3.016578555E-3,1.544692580E-1,1.548504640E-1
1.425895833E-1,-7.484436035E-5,-7.490283251E-3,1.394286114E-1,1.396296803E-1
1.526705833E-1,3.566801548E-3,1.358308196E-3,1.748481202E-1,1.748897716E-1
1.627515833E-1,1.548167288E-2,1.833686829E-3,1.834090286E-1,1.840704115E-1
1.728325833E-1,3.014765918E-2,1.007884562E-2,1.803978588E-1,1.831771054E-1
1.829135833E-1,2.839758754E-2,1.066064358E-2,1.868716036E-1,1.893173751E-1
1.929945833E-1,1.397718430E-2,3.701404452E-2,1.928294778E-1,1.968466629E-1
2.030755833E-1,-2.851102352E-3,5.109297037E-2,1.768503530E-1,1.841050455E-1
2.131565833E-1,-6.354753971E-3,5.785001278E-2,1.763338977E-1,1.856896614E-1
2.232375833E-1,-2.070849895E-2,7.698794961E-2,1.812383960E-1,1.979983397E-1
2.333185833E-1,-2.489335120E-2,9.714271724E-2,2.073245792E-1,2.303038593E-1
2.433985833E-1,-2.542369366E-3,8.734453797E-2,2.252528733E-1,2.416079239E-1
2.534795833E-1,9.593526721E-3,8.613650322E-2,2.204913394E-1,2.369134097E-1
2.635605833E-1,3.014239669E-3,9.275964439E-2,2.360601358E-1,2.536490193E-1
2.736415833E-1,-2.236559987E-3,8.367424071E-2,2.455438811E-1,2.594189243E-1
2.837225833E-1,-3.370919824E-2,6.031636834E-2,2.780427057E-1,2.864997740E-1
2.938035833E-1,-6.600570917E-2,3.371504545E-2,3.607829998E-1,3.683175680E-1
3.038845833E-1,-9.462198257E-2,3.844251931E-2,4.113614152E-1,4.238506350E-1
3.139655833E-1,-5.320030689E-2,4.875642300E-2,4.498146057E-1,4.555662860E-1
3.240465833E-1,-7.497299910E-2,1.243948352E-1,4.756065278E-1,4.972892467E-1
3.341275833E-1,-8.626748085E-2,6.804931104E-2,4.000909071E-1,4.149042310E-1
3.442085833E-1,-1.048861849E-1,-3.084172368E-2,2.962784171E-1,3.158056747E-1
3.542895833E-1,-1.205994076E-1,-1.199912971E-1,3.574467248E-1,3.958665047E-1
3.643705833E-1,-4.428096414E-2,-1.411365831E-1,3.130030619E-1,3.461954009E-1
3.744515833E-1,5.178837973E-1,-1.100686891E0,-2.935011359E-1,1.251342550E0
3.845315833E-1,1.401947136E0,-2.615732042E0,-5.508955689E-1,3.018442614E0
3.946125833E-1,2.342638419E0,-4.398736374E0,-6.178973512E-1,5.021815766E0
4.046935833E-1,1.527558777E0,-8.035139084E0,-8.837113363E-1,8.226654341E0
4.147745833E-1,1.358090095E0,-6.983441336E0,-1.395696755E-1,7.115640610E0
4.248555833E-1,2.023756421E0,-2.164301265E0,4.919135351E-1,3.003625966E0
4.349365833E-1,2.713522630E0,2.621251813E0,-3.344722836E-1,3.787616380E0
4.450175833E-1,1.767923194E0,7.313302066E0,-1.422629322E0,7.657271950E0
4.550985833E-1,-4.647150654E-1,5.683900580E0,1.034965357E0,5.796019254E0
4.651795833E-1,-2.375637181E0,1.900447998E0,7.536802237E-1,3.134228531E0
4.752605833E-1,-3.739697868E0,4.636602277E-1,-4.147073382E-1,3.791082052E0
4.853415833E-1,-5.032468717E0,-5.943753183E-1,-2.400931066E-1,5.073131981E0
4.954225833E-1,-6.183534048E0,-1.075332195E-1,-4.098811926E-1,6.198036730E0
5.055035833E-1,-5.841928600E0,1.047632180E0,3.848263121E-1,5.947583900E0
5.155835833E-1,-4.827673497E0,2.073872321E0,1.614030179E0,5.496587233E0
5.256645833E-1,-3.935846810E0,1.248999762E0,7.007332474E-1,4.188307247E0
5.357455833E-1,-1.998497618E0,3.781464529E-1,2.243077294E0,3.027933820E0
5.458265833E-1,2.543486184E-1,1.201115744E0,3.940853781E0,4.127674983E0
5.559075833E-1,1.205021684E0,1.565943409E0,2.011924434E0,2.819946089E0
5.659885833E-1,1.848346968E0,1.350392236E0,-1.014041680E-1,2.291337711E0
5.760695833E-1,2.368617014E0,8.312559646E-1,6.078945194E-1,2.582802506E0
5.861505833E-1,2.417026697E0,7.830561966E-1,1.385422174E0,2.893888329E0
5.962315833E-1,3.112121474E0,1.210339726E0,1.613224141E0,3.708465242E0
6.063125833E-1,3.518906420E0,1.414871237E0,1.814469954E0,4.204386308E0
6.163935833E-1,3.469869331E0,1.653768588E0,1.043002939E0,3.982812931E0
6.264745833E-1,4.776873472E0,1.836512203E0,1.555041860E0,5.348780461E0
6.365552083E-1,6.412447278E0,1.765608281E0,1.676190759E0,6.859042802E0
6.466352083E-1,6.661926336E0,-3.995285511E-1,1.765926224E0,6.903577405E0
6.567162083E-1,4.247807459E0,-1.699880315E0,3.356978307E0,5.674747981E0
6.667972083E-1,-1.402741773E0,-2.119467739E0,5.147579927E0,5.740854212E0
6.768782083E-1,-8.266688824E0,-2.878364995E0,-4.162435479E-1,8.763354829E0
6.869592083E-1,-1.093807759E1,-5.517037418E0,2.778506831E0,1.256182086E1
6.970402083E-1,-5.407144847E0,-5.056394938E0,2.090981274E0,7.692629450E0
7.071212083E-1,-6.713065499E-1,-1.800409155E0,-5.922937095E-1,2.010705709E0
7.172022083E-1,-1.993806982E-1,1.223507656E0,-1.497309230E0,1.943877202E0
7.272832083E-1,-3.793884015E-1,-1.205831523E0,-2.648695720E0,2.934885728E0
7.373642083E-1,4.057256641E0,-1.935491531E0,-1.694620745E0,4.804081430E0
7.474452083E-1,4.168341460E0,7.821545559E-1,1.251728657E0,4.421952160E0
7.575252083E-1,2.638330361E0,1.476410843E0,1.380367987E0,3.323551090E0
7.676062083E-1,4.424231404E-1,1.065390174E0,5.791326503E-1,1.290809469E0
7.776872083E-1,-1.986340088E0,3.996624523E-1,3.929761612E-1,2.063905832E0
7.877682083E-1,-2.942931705E0,-3.577227134E-1,-4.203067050E-1,2.994239517E0
7.978492083E-1,-3.719838384E0,3.314769012E-1,-6.013610599E-1,3.782685510E0
8.079302083E-1,-4.202235430E0,4.946820456E-1,6.002809330E-1,4.273620261E0
8.180112083E-1,-4.338550399E0,8.177190757E-1,6.386486080E-1,4.460891850E0
8.280922083E-1,-5.030001776E0,1.534142157E0,2.400950070E-1,5.264233623E0
8.381732083E-1,-4.662174489E0,8.763947153E-1,2.005787927E-1,4.748070189E0
8.482542083E-1,-4.151036040E0,8.634945881E-1,-1.035237837E-1,4.241160252E0
8.583352083E-1,-2.562449289E0,3.931925082E-1,2.242816508E-2,2.592537315E0
8.684162083E-1,-6.512698960E-1,-4.223671907E-1,-2.178059325E-1,8.062170586E-1
8.784962083E-1,4.175672114E-1,-6.983391050E-1,7.412391760E-1,1.100670431E0
8.885772083E-1,7.265323323E-1,-2.927136621E-1,5.629850527E-1,9.646153054E-1
8.986582083E-1,1.337582155E0,1.444159940E-1,1.429983366E-1,1.352934044E0
9.087392083E-1,2.146974211E0,-1.416832978E-1,-1.177646774E-1,2.154864483E0
9.188202083E-1,3.301732644E0,-9.225269079E-1,-5.887853801E-1,3.478385053E0
9.289012083E-1,4.266137896E0,-1.841136474E0,-7.296880746E-1,4.703420111E0
9.389822083E-1,5.116026598E0,-3.117938869E0,-3.105339289E-1,5.999308482E0
9.490632083E-1,4.713873816E0,-4.433485500E0,-1.057475383E0,6.557030900E0
9.591442083E-1,4.011338457E0,-5.067263158E0,-1.638055365E0,6.667174627E0
9.692252083E-1,2.939481847E0,-3.617448961E0,-7.632218564E-1,4.723240214E0
9.793062083E-1,1.582250708E0,-1.778689672E0,-9.011260986E-2,2.382304459E0
9.893862083E-1,4.681918198E-1,-2.595695972E-2,7.510399500E-2,4.748873066E-1
9.994672083E-1,1.477509534E-1,9.216264367E-2,-2.684688767E-2,1.761960627E-1
1.009548208E0,-3.032196468E-1,7.416748667E-1,-1.784008702E-1,8.208840555E-1
1.019629208E0,-9.228490895E-1,7.546714729E-1,-3.658812968E-1,1.247015877E0
1.029710208E0,9.431208014E-2,8.134968013E-2,-4.467986119E-1,4.638335245E-1
1.039791208E0,3.857893485E-1,-1.492000397E0,4.388557907E-1,1.602339855E0
1.049872208E0,7.484260619E-1,-2.111409692E0,-1.426716965E-2,2.240177673E0
1.059953208E0,1.138459904E0,-2.899283409E0,-5.982883481E-1,3.171732048E0
1.070034208E0,9.170539141E-1,-2.087921134E0,-1.196268986E0,2.575162525E0
1.080115208E0,1.018628236E0,-1.361870027E0,-5.377391875E-1,1.783663895E0
1.090196208E0,1.176442248E0,-1.359092308E0,-7.821399379E-1,1.960329346E0
1.100277208E0,1.272213793E0,-1.261762187E0,-2.857218174E-1,1.814444463E0
1.110357208E0,1.300226634E0,-1.746624126E0,3.722224195E-2,2.177767351E0
1.120438208E0,1.230225522E0,-2.476622688E0,1.305555347E-1,2.768421847E0
1.130519208E0,1.036727707E0,-2.667228470E0,9.604660551E-1,3.018510741E0
1.140600208E0,3.116109860E-1,-3.346476123E0,1.600126816E0,3.722419869E0
1.150681208E0,1.344959003E-1,-3.284034292E0,1.378488107E0,3.564154856E0
1.160762208E0,6.010557622E-1,-2.808537546E0,1.394688402E0,3.192852473E0
1.170843208E0,1.090830824E0,-3.018619233E0,1.248638989E0,3.443990895E0
1.180924208E0,1.273866216E0,-2.782786408E0,8.626082233E-1,3.179737139E0
1.191005208E0,1.673837401E0,-2.382122912E0,9.030896667E-1,3.048247392E0
1.201086208E0,1.910544385E0,-2.530132313E0,4.339183652E-1,3.200005393E0
1.211167208E0,1.094174262E0,-3.317979718E0,1.288086644E0,3.723623763E0
1.221247208E0,-5.639013845E-1,-3.362596312E0,3.187630663E0,4.667550532E0
1.231328208E0,-8.396876496E-1,-1.933449683E0,3.046099977E0,3.704325593E0
1.241409208E0,1.427156821E0,-1.431529369E0,-4.259696603E-2,2.021847529E0
1.251490208E0,2.503228104E0,-1.323914874E0,-7.048735877E-1,2.918175510E0
1.261571208E0,2.566216065E0,-1.755377408E0,7.045894130E-1,3.187986979E0
1.271652208E0,2.763009371E0,-3.140114434E0,1.557174339E0,4.463107815E0
1.281733208E0,2.061968560E0,-2.445365227E0,1.515805289E0,3.539659745E0
1.291814208E0,9.729339999E-1,-1.387524394E0,1.168580155E0,2.058495589E0
1.301895208E0,8.972961724E-2,-9.784683895E-1,1.608787712E0,1.885112648E0
1.311976208E0,-5.732306170E-1,-3.941660696E-1,1.668536900E0,1.807754303E0
1.322056208E0,-1.094362543E0,1.468557447E0,1.128562907E0,2.151265810E0
1.332137208E0,-1.191812823E0,2.658362921E0,5.356447148E-1,2.962132085E0
1.342218208E0,-5.837216914E-1,3.145608478E0,1.210934973E-1,3.201600747E0
1.352299208E0,8.485508591E-1,4.552561415E0,6.260379180E-1,4.673090784E0
1.362380208E0,2.919318894E0,7.030019086E0,3.903601170E-1,7.622071383E0
1.372461208E0,4.532564523E0,9.325951701E0,1.881093860E-1,1.037077150E1
1.382542208E0,4.418316361E0,8.038722258E0,-6.748973250E-2,9.173174471E0
1.392623208E0,2.358653943E0,4.219032142E0,-5.053513869E-1,4.859923935E0
1.402704208E0,1.689856433E0,4.636439724E0,-8.034658297E-1,4.999774537E0
1.412785208E0,1.729900505E0,4.421006665E0,-1.300903741E0,4.922418738E0
1.422865208E0,1.752823929E0,-2.892804694E-1,4.866637588E-2,1.777200983E0
1.432946208E0,1.633749475E0,-6.262496018E0,9.358363402E-1,6.539402372E0
1.443027208E0,1.940473943E0,-5.695818375E0,-3.510808611E-1,6.027523858E0
1.453108208E0,1.252337937E0,-4.358216339E0,-1.665574701E0,4.830790728E0
1.463189208E0,-4.071384099E-1,-2.936520233E0,-2.422634761E0,3.828586155E0
1.473270208E0,-1.675150394E0,-1.622906399E0,-2.229137532E0,3.226299452E0
1.483351208E0,-3.219719305E0,-5.560930127E-1,-1.384312518E0,3.548542376E0
1.493432208E0,-4.861582377E0,-5.476993346E-1,-5.444629008E-1,4.922539753E0
1.503513208E0,-5.760511385E0,-1.846907968E0,-8.057164961E-1,6.102764908E0
1.513594208E0,-6.038503804E0,-2.939809291E0,-1.623189989E0,6.909468330E0
1.523675208E0,-6.343991586E0,-2.958181828E0,-1.329635205E0,7.124956052E0
1.533755208E0,-6.441851757E0,-2.142735565E0,-1.099481707E0,6.877327226E0
1.543836208E0,-6.127155195E0,-1.576566045E0,-7.600509113E-1,6.372226351E0
1.553917208E0,-5.935851256E0,-1.224568341E0,-9.051782922E-1,6.128070291E0
1.563998208E0,-5.869138033E0,-1.399232858E-1,-5.980865461E-1,5.901192023E0
1.574079208E0,-5.594259256E0,1.347927049E0,3.484151155E-1,5.764896968E0
1.584160208E0,-4.855975190E0,3.288948292E0,1.166642314E0,5.979860383E0
1.594241208E0,-3.114559763E0,5.311735244E0,1.620210832E0,6.367110566E0
1.604322208E0,-1.672794843E-1,6.888797718E0,1.042531507E0,6.969245897E0
1.614403208E0,3.426989067E0,6.511105009E0,-4.979178947E-1,7.374731503E0
1.624484208E0,3.162952197E0,3.405343552E0,-1.534973046E-1,4.650182010E0
1.634564208E0,1.416259950E0,9.245962375E-1,1.876710641E-1,1.701731729E0
1.644645083E0,-7.290922433E-2,2.402006954E-1,-1.429113592E-1,2.888525327E-1
1.654726083E0,-1.089372529E0,-1.567866558E-1,-3.422926421E-1,1.152596553E0
1.664807083E0,-1.386944935E0,-2.823959577E-1,-1.481241520E-1,1.423131931E0
1.674888083E0,-1.558741101E0,-3.433514267E-1,4.479486130E-1,1.657776216E0
1.684969083E0,-1.620242700E0,-4.617739159E-1,9.978241351E-1,1.958079304E0
1.695050083E0,-1.475571767E0,-5.603632343E-1,1.274551802E0,2.028743771E0
1.705131083E0,-1.135216746E0,-4.874958175E-1,8.842943037E-1,1.519324076E0
1.715212083E0,-9.106842497E-1,-6.144914943E-1,5.167804277E-1,1.214087151E0
1.725293083E0,-8.761368531E-1,-6.337808740E-1,7.954262736E-1,1.342384795E0
1.735373083E0,-9.415040463E-1,-6.216812307E-1,1.369470823E0,1.774364043E0
1.745454083E0,-1.141560975E0,-5.967212212E-1,1.894757488E0,2.291144608E0
1.755535083E0,-1.390893559E0,-4.307357258E-1,2.106572875E0,2.560813823E0
1.765616083E0,-1.559983342E0,-2.571476805E-1,2.104348594E0,2.632101054E0
1.775697083E0,-1.643359667E0,-1.624274647E-1,2.084742880E0,2.659542545E0
1.785778083E0,-1.690795496E0,1.609709233E-1,2.459721604E0,2.989135563E0
1.795859083E0,-1.736528324E0,4.563488692E-1,3.159672786E0,3.634187258E0
1.805940083E0,-1.847942048E0,8.198229039E-1,3.944463559E0,4.432357406E0
1.816021083E0,-1.993288334E0,1.086753561E0,4.534469253E0,5.071059366E0
1.826102083E0,-2.403593888E0,1.083623546E0,4.892884277E0,5.558041032E0
1.836182083E0,-3.275043613E0,8.533800745E-1,4.510346273E0,5.638917602E0
1.846263083E0,-4.091559332E0,7.746525782E-1,2.534047901E0,4.874663388E0
1.856344083E0,-4.416590263E0,7.339378309E-1,8.734804630E-1,4.561567977E0
1.866425083E0,-4.652535647E0,5.568239146E-1,6.755782333E-1,4.734189135E0
1.876506083E0,-4.407352247E0,6.276986003E-2,1.943333817E-1,4.412081067E0
1.886587083E0,-3.947683036E0,-8.051791370E-1,6.120128596E-1,4.075177853E0
1.896668083E0,-3.395423166E0,-1.806410152E0,2.993904222E0,4.873959233E0
1.906749083E0,-1.884113801E0,-3.168016178E0,5.001981334E0,6.213374976E0
1.916830083E0,-1.736345306E-1,-3.841811303E0,2.274414569E0,4.467955312E0
1.926910083E0,6.384370118E-2,-2.747801932E0,-2.811086932E0,3.931501140E0
1.936991083E0,7.451793954E-1,4.200967169E-1,-5.325765638E0,5.394029405E0
1.947072083E0,2.544425831E0,4.759684997E0,-5.164081355E0,7.469701488E0
1.957153083E0,4.494675150E0,8.223489010E0,-1.320050449E0,9.464164485E0
1.967234083E0,6.926245041E0,8.023065754E0,1.532930906E0,1.070945058E1
1.977315083E0,8.517128579E0,4.031542341E0,-1.725772078E0,9.579827877E0
1.987396083E0,8.442599384E0,1.778880876E-1,-3.883901315E0,9.294827484E0
1.997477083E0,7.594025720E0,-1.661420254E0,-2.047324500E0,8.038723873E0
2.007558083E0,6.081957972E0,-2.194029095E0,-9.704650131E-1,6.538025603E0
2.017639083E0,5.122635121E0,-3.196255306E0,-1.994809780E0,6.358986131E0
2.027719083E0,5.090333932E0,-3.835074726E0,-3.734094773E0,7.386661050E0
2.037800083E0,4.810976188E0,-4.556329946E0,-4.219034480E0,7.855309440E0
2.047881083E0,4.508369621E0,-4.329701223E0,-3.651588806E0,7.239185737E0
2.057962083E0,3.606543026E0,-2.821098534E0,-2.923119876E0,5.432345658E0
2.068043083E0,2.077761012E0,-1.571284255E0,-2.290499382E0,3.468776795E0
2.078124083E0,8.040471160E-1,-9.761920685E-1,-1.668146306E0,2.093359696E0
2.088205083E0,1.865992695E-2,-2.349949193E-1,-4.517093959E-1,5.095215239E-1
2.098286083E0,-3.414981517E-1,2.886138868E-1,3.823465079E-1,5.883092855E-1
2.108367083E0,3.726179105E-1,-3.168664634E-2,2.269339478E-1,4.374324719E-1
2.118447083E0,3.129849063E0,-1.846668817E0,-4.098184812E-1,3.657060577E0
2.128528083E0,5.924279616E0,-4.268175650E0,-1.813684673E0,7.523553977E0
2.138609083E0,6.592465507E0,-5.435624880E0,-2.598979476E0,8.930918968E0
2.148690083E0,3.695950462E0,-4.687986438E0,-1.400346753E0,6.131740185E0
2.158771083E0,-6.281029353E-1,-3.721270952E0,-2.771910587E-1,3.784072631E0
2.168852083E0,-2.391901211E0,-2.981663661E0,7.442666450E-1,3.894283301E0
2.178933083E0,-4.951074305E-1,-2.621526632E0,6.207409984E-1,2.739133556E0
2.189014083E0,2.121078647E0,-2.076195420E0,-1.734309013E-1,2.973153263E0
2.199095083E0,3.126831315E0,-1.322025638E0,8.617202505E-2,3.395916883E0
2.209176083E0,3.458211444E0,-2.641345185E-1,6.982002336E-1,3.537863339E0
2.219256083E0,3.303066687E0,6.189459032E-1,5.372696561E-1,3.403234087E0
2.229337083E0,2.411846941E0,1.077102731E0,4.807756126E-1,2.684827955E0
2.239418083E0,1.914443893E0,9.359386665E-1,2.556046003E-1,2.146254952E0
2.249499083E0,1.949335399E0,5.555305105E-1,1.255965842E-1,2.030836563E0
2.259580083E0,1.998335066E0,3.839515686E-1,5.196904407E-1,2.100199990E0
2.269661083E0,2.365550734E0,8.488245088E-1,8.957032447E-1,2.668073766E0
2.279742083E0,2.948907851E0,1.859102336E0,1.763371137E0,3.906634969E0
2.289823083E0,3.409178448E0,2.635741798E0,2.700424867E0,5.085462317E0
2.299904083E0,3.636458551E0,2.452671323E0,2.135366319E0,4.878444089E0
2.309984083E0,3.556428003E0,1.367802320E0,1.669055548E0,4.159905017E0
2.320065083E0,3.425502120E0,6.989703119E-1,1.887684111E0,3.973156878E0
2.330146083E0,3.333643239E0,3.015724862E-1,1.949625421E0,3.873649764E0
2.340227083E0,3.268578932E0,-3.394215131E-1,1.391773565E0,3.568732107E0
2.350308083E0,3.178071050E0,-1.388062338E0,1.097641661E0,3.637536236E0
2.360389083E0,2.955500295E0,-2.551854134E0,1.161610931E0,4.073853393E0
2.370470083E0,2.282006886E0,-3.409420815E0,1.106947505E0,4.249357422E0
2.380551083E0,1.014583132E0,-3.846734658E0,1.627098852E-1,3.981610349E0
2.390632083E0,-8.189984465E-1,-4.850122127E0,-1.356124261E0,5.102304980E0
2.400713083E0,-2.691421617E0,-4.911573440E0,-2.624190039E0,6.184955726E0
2.410793083E0,-4.486869702E0,-4.895867234E0,-2.945838940E0,7.264948916E0
2.420874083E0,-5.690948814E0,-4.015670659E0,-2.586551804E0,7.429855953E0
2.430955083E0,-6.370956606E0,-2.599180328E0,-1.784048645E0,7.108280806E0
2.441036083E0,-6.597603455E0,-8.446460885E-1,-1.010819864E-1,6.652218873E0
2.451117083E0,-6.171140875E0,1.502878264E0,4.935917153E0,8.043935661E0
2.461198083E0,-5.083226057E0,3.985939322E0,1.199226625E1,1.362135637E1
2.471279083E0,-2.203848324E0,5.603530601E0,1.333516937E1,1.463158381E1
2.481360083E0,2.947334658E0,6.161937357E0,8.000258104E0,1.051952391E1
2.491440083E0,6.716551609E0,6.446563443E0,3.838349751E0,1.006991433E1
2.501521083E0,6.363783242E0,6.830222066E0,2.423396946E0,9.644818473E0
2.511602083E0,5.403959284E0,8.384099160E0,4.992322903E0,1.115433470E1
2.521683083E0,5.384007415E0,7.660032599E0,3.868682767E0,1.013066343E1
2.531764083E0,2.092697432E0,4.099160128E0,-8.604897040E-1,4.682193805E0
2.541845083E0,-1.933056750E0,2.243408246E0,-3.940840624E0,4.929484130E0
2.551926083E0,-3.862283574E0,1.230776914E0,-2.700032811E0,4.870546520E0
2.562007083E0,-4.778480871E0,1.974563211E0,-1.542925259E0,5.395683244E0
2.572088083E0,-5.842395208E0,3.139599879E0,-2.306052391E0,7.022004471E0
2.582168083E0,-6.985557443E0,4.162038161E0,-2.564931432E0,8.526397111E0
2.592249083E0,-7.960291800E0,5.430269415E0,-1.630923516E0,9.773125549E0
2.602330083E0,-8.499106876E0,7.158232153E0,2.747273344E-1,1.111533087E1
2.612411083E0,-7.617298223E0,8.463900790E0,1.973041180E0,1.155654534E1
2.622492083E0,-5.566821197E0,8.052632200E0,2.500008042E0,1.010368367E1
2.632573083E0,-3.279479896E0,6.052985018E0,1.021450395E0,6.959667875E0
2.642653625E0,-1.977383907E0,3.934239995E0,-1.012813765E-1,4.404378432E0
2.652734625E0,-1.287541099E0,2.342042003E0,-1.324066901E-1,2.675902532E0
2.662815625E0,-7.242144960E-1,1.056323481E0,3.751348445E-1,1.334553140E0
2.672895625E0,-1.581531501E-1,4.532972074E-1,8.469042832E-1,9.735181775E-1
2.682976625E0,5.959640068E-1,9.407497555E-1,1.590521595E0,1.941633885E0
2.693057625E0,1.588597861E0,1.180450514E0,2.123386543E0,2.902736122E0
2.703138625E0,2.629808044E0,4.785747206E-1,2.693215835E0,3.794513888E0
2.713219625E0,3.383657983E0,-7.030925989E-1,3.658458992E0,5.032673519E0
2.723300625E0,3.480052257E0,-2.285753782E0,4.590698710E0,6.197576035E0
2.733381625E0,2.882965000E0,-4.128887957E0,5.234964226E0,7.263886935E0
2.743462625E0,1.968972103E0,-6.074496340E0,5.076312894E0,8.157530847E0
2.753543625E0,1.098371978E0,-6.418096274E0,4.595272987E0,7.969624496E0
2.763623625E0,7.441634417E-2,-5.420421535E0,4.602644572E0,7.111318054E0
2.773704625E0,-5.614332747E-1,-6.194330932E0,3.812938921E0,7.295440099E0
2.783785625E0,-1.009793970E0,-7.631305813E0,2.133306929E0,7.987960361E0
2.793866625E0,-1.369368204E0,-8.139525917E0,-3.504236341E-3,8.253912025E0
2.803947625E0,-1.399152167E0,-7.511285280E0,-2.731167188E0,8.113957577E0
2.814028625E0,-1.369597415E0,-6.573344527E0,-4.522637705E0,8.095610363E0
2.824109625E0,-9.964561790E-1,-5.563578916E0,-5.183056739E0,7.668794718E0
2.834190625E0,8.268164662E-1,-3.544245914E0,-7.244258144E0,8.107069792E0
2.844271625E0,2.792054537E0,-1.084117051E0,-5.189220289E0,5.991567869E0
2.854351625E0,3.565101762E0,3.407283658E-1,-4.664382398E-1,3.611593973E0
2.864432625E0,2.669519701E0,1.925527875E0,-3.556571844E0,4.845946380E0
2.874513625E0,1.046301938E0,3.870374951E0,-6.476805242E0,7.617319486E0
2.884594625E0,-1.980364233E-1,4.728260306E0,-1.932303044E0,5.111698250E0
2.894675625E0,3.792252642E-1,4.292380199E0,-2.899960517E0,5.194045685E0
2.904756625E0,1.760332924E0,3.008853799E0,-9.016132302E0,9.666572033E0
2.914837625E0,2.250906131E0,2.622838748E0,-1.120831251E1,1.172911466E1
2.924918625E0,1.906330882E0,4.042884770E0,-8.146313950E0,9.292009775E0
2.934999625E0,2.875214808E0,2.866554789E0,1.615628954E0,4.369697182E0
2.945079625E0,4.597395526E0,-2.636515385E-1,3.675206587E0,5.891748570E0
2.955160625E0,2.983588857E0,-1.548221083E0,-5.338994964E0,6.309014044E0
2.965241625E0,-4.604413354E-1,7.595006883E-2,-6.721244584E0,6.737425576E0
2.975322625E0,-2.844024298E0,1.321764268E0,-4.841706522E0,5.768678967E0
2.985403625E0,-3.521079538E0,1.632019869E0,-3.435010570E0,5.182739389E0
2.995484625E0,-2.200274798E0,1.460934432E0,-8.362760916E-1,2.770360320E0
3.005565625E0,6.316498563E-1,5.710344028E-1,-2.515697291E-1,8.878902853E-1
3.015646625E0,2.796944856E0,-3.139913875E-1,-2.779560207E0,3.955685284E0
3.025726625E0,4.045553732E0,-8.926365262E-1,-3.289377478E0,5.289925250E0
3.035807625E0,4.704234389E0,-1.078324215E0,-1.748851039E0,5.133330717E0
3.045888625E0,4.572853300E0,-8.099738538E-1,-9.451559249E-1,4.739236718E0
3.055969625E0,3.909075625E0,-5.907903904E-1,-1.280441702E0,4.155651150E0
3.066050625E0,3.720321657E0,-1.162026522E0,-1.077927189E0,4.043887473E0
3.076131625E0,3.862418353E0,-1.922432359E0,-2.232847005E-1,4.320171034E0
3.086212625E0,3.854742420E0,-2.013102794E0,4.447690433E-1,4.371434717E0
3.096293625E0,3.825514821E0,-1.687188349E0,6.178624141E-1,4.226455031E0
3.106374625E0,3.774339404E0,-1.362645661E0,6.202106559E-1,4.060431306E0
3.116454625E0,3.747709723E0,-1.215715072E0,5.578635496E-1,3.979259107E0
3.126535625E0,3.595396187E0,-1.038827443E0,3.634749117E-1,3.760073165E0
3.136616625E0,3.291553519E0,-1.147928885E0,1.930996192E-1,3.491325358E0
3.146697625E0,2.819373021E0,-1.208865643E0,-2.129278198E-2,3.067682147E0
3.156778625E0,2.035045640E0,-9.048899513E-1,3.280287981E-3,2.227161274E0
3.166859625E0,1.318706174E0,-5.747701889E-1,-8.990225628E-2,1.441328956E0
3.176940625E0,9.918614370E-1,-2.508321029E-1,-4.041843966E-2,1.023884517E0
3.187021625E0,9.283659375E-1,-1.345561266E-1,1.533559482E-1,9.505191802E-1
3.197102625E0,8.461593479E-1,-4.489959955E-2,-1.150846061E-1,8.551292783E-1
3.207182625E0,8.762137440E-1,-3.079617387E-1,-5.879246700E-1,1.099202609E0
3.217263625E0,8.484459016E-1,-7.122861761E-1,-2.416934896E-1,1.133855276E0
3.227344625E0,5.105768242E-1,-1.037152800E0,1.537073658E-1,1.166190627E0
3.237425625E0,6.389223307E-2,-1.333017819E0,1.463289106E-1,1.342546414E0
3.247506625E0,-3.255969411E-1,-1.603343369E0,-2.356252491E-2,1.636239139E0
3.257587625E0,-4.529077828E-1,-1.872721086E0,7.849945486E-2,1.928308038E0
3.267668625E0,-6.141818842E-1,-2.207288241E0,4.358982325E-2,2.291558604E0
3.277749625E0,-5.430338413E-1,-2.716508803E0,-4.692525047E-1,2.809715954E0
3.287829625E0,-3.003167966E-1,-3.542830887E0,-1.346393325E0,3.801922653E0
3.297910625E0,1.930940643E-1,-4.380375533E0,-2.206986524E0,4.908743693E0
3.307991625E0,7.124069211E-1,-4.916293312E0,-1.702982555E0,5.251439149E0
3.318072625E0,1.241469718E0,-4.646026234E0,-5.614905775E-2,4.809361657E0
3.328153625E0,2.406337987E0,-3.747734866E0,6.996023228E-1,4.508372493E0
3.338234625E0,3.593069287E0,-2.322743853E0,8.369053982E-1,4.359552334E0
3.348315625E0,3.434072676E0,-4.981108528E-1,2.165397618E0,4.090222049E0
3.358396625E0,2.583832557E0,1.120163966E0,2.507432837E0,3.770699859E0
3.368476625E0,2.164214142E0,2.190036031E0,7.787683602E-1,3.175934639E0
3.378557625E0,1.677770239E0,2.202134505E0,-1.252092354E0,3.038427984E0
3.388638625E0,2.248277807E-1,1.711432659E0,-2.691483890E0,3.197441916E0
3.398719625E0,-1.720491166E0,2.255189216E0,-2.699501007E0,3.915772458E0
3.408800625E0,-3.031010360E0,3.830367717E0,-1.110680440E0,5.009226656E0
3.418881625E0,-3.666015057E0,5.202678825E0,9.675983425E-1,6.437684359E0
3.428962625E0,-3.942885688E0,5.322434480E0,2.991744261E0,7.268093977E0
3.439043625E0,-4.064861238E0,5.398192175E0,4.163552590E0,7.937174926E0
3.449124625E0,-4.132627836E0,4.572923759E0,4.821353241E0,7.825323739E0
3.459204625E0,-3.751329441E0,2.584419617E0,4.599835569E0,6.473807581E0
3.469285625E0,-3.205426371E0,6.263917476E-1,3.260213320E0,4.614771472E0
3.479366625E0,-2.439166887E0,7.661723614E-2,1.670892890E0,2.957581503E0
3.489447625E0,-1.628523526E0,2.905498999E-1,3.483151281E-1,1.690512215E0
3.499528625E0,-1.033853216E0,8.612901878E-1,-3.267270617E-1,1.384710740E0
3.509609625E0,-5.488029966E-1,1.378343096E0,-5.082715595E-1,1.568232890E0
3.519690625E0,-1.166788495E-1,1.518464018E0,-7.218943208E-1,1.685371869E0
3.529771625E0,2.172714239E-1,1.659741518E0,-6.407004690E-1,1.792329733E0
3.539851625E0,8.798890114E-2,1.850995756E0,-2.999870136E-2,1.853328697E0
3.549932625E0,-6.215502530E-1,1.998388860E0,6.476498848E-1,2.190738032E0
3.560013625E0,-1.873671843E0,1.889313145E0,8.120788515E-1,2.782017685E0
3.570094625E0,-2.939078389E0,1.413428729E0,5.112401178E-1,3.301110269E0
3.580175625E0,-3.532011784E0,1.055132988E0,-2.536593778E-1,3.694963592E0
3.590256625E0,-3.990645745E0,1.145192973E0,-6.795385525E-1,4.206957696E0
3.600337625E0,-4.122832580E0,1.481835304E0,-5.574842115E-1,4.416375550E0
3.610418625E0,-3.802595197E0,1.749265898E0,-3.991198307E-1,4.204635306E0
3.620498625E0,-3.126716124E0,2.037527198E0,-4.650746691E-1,3.760872938E0
3.630579625E0,-2.026781770E0,2.009415540E0,-8.031187244E-1,2.964893731E0
3.640660333E0,-6.278786945E-1,1.851669940E0,-7.059546648E-1,2.078770120E0
3.650741333E0,9.214457577E-1,2.062956154E0,-1.042963471E-1,2.261797539E0
3.660822333E0,1.737460370E0,2.454982728E0,7.036776128E-1,3.088830023E0
3.670903333E0,2.300202252E0,2.651065596E0,1.154075332E0,3.694721785E0
3.680984333E0,2.783520818E0,2.743665027E0,1.169130889E0,4.079528522E0
3.691065333E0,3.086159252E0,3.083520404E0,1.050708985E0,4.487367422E0
3.701145333E0,2.999693550E0,3.025842884E0,9.023990375E-1,4.355250920E0
3.711226333E0,2.651742704E0,2.088412592E0,1.467294449E-1,3.378570120E0
3.721307333E0,1.718499604E0,2.543047643E-1,4.252791041E-1,1.788511705E0
3.731388333E0,5.926919049E-1,-1.412541706E0,1.493575929E0,2.139468817E0
3.741469333E0,-7.118657613E-1,-2.957060916E0,2.374780564E0,3.858826875E0
3.751550333E0,-2.286342596E0,-3.882044824E0,2.940850680E0,5.380170742E0
3.761631333E0,-3.626713289E0,-3.891295704E0,2.455897817E0,5.858896281E0
3.771712333E0,-4.434279259E0,-3.411332855E0,1.712131694E0,5.850762286E0
3.781792333E0,-4.616028264E0,-3.118834662E0,1.348462070E0,5.731770803E0
3.791873333E0,-4.284165446E0,-3.049104862E0,1.711575039E0,5.529973159E0
3.801954333E0,-4.072578685E0,-3.385663578E0,2.431286302E0,5.827501016E0
3.812035333E0,-4.287491050E0,-3.809700733E0,2.708080627E0,6.342720226E0
3.822116333E0,-4.822451056E0,-4.059576817E0,2.573333881E0,6.808688962E0
3.832197333E0,-5.264371628E0,-3.942686883E0,1.807886282E0,6.821058664E0
3.842278333E0,-5.387790563E0,-3.368746414E0,4.664440870E-2,6.354440593E0
3.852359333E0,-5.081523932E0,-2.336118189E0,-2.608869165E0,6.171347664E0
3.862439333E0,-5.395142852E0,-1.800153047E-1,-3.290474415E0,6.321961229E0
3.872520333E0,-7.092880163E0,3.067927049E0,-1.327579324E0,7.841147380E0
3.882601333E0,-7.847363940E0,7.129852692E0,1.537237380E0,1.071349705E1
3.892682333E0,-4.965681819E0,8.710286086E0,2.745939009E0,1.039554042E1
3.902763333E0,-1.945397884E0,5.282771646E0,-6.131495583E-1,5.662879265E0
3.912844333E0,-7.735828301E-1,3.629631634E0,-2.629105793E0,4.548060407E0
3.922925333E0,8.349052119E-1,4.462207316E0,-1.486729132E0,4.776894844E0
3.933006333E0,2.023703796E0,4.264537513E0,1.060375017E-1,4.721535894E0
3.943086333E0,1.421574485E0,2.967772431E0,-1.222407795E0,3.510388587E0
3.953167333E0,1.185201377E-1,2.473763984E0,-4.001661900E0,4.706044330E0
3.963248333E0,4.206171191E-1,4.250740423E0,-6.500244391E0,7.778103242E0
3.973329333E0,2.668169872E0,7.254538718E0,-6.656149871E0,1.020057810E1
3.983410333E0,4.325857263E0,7.568149452E0,-1.503277921E0,8.845890102E0
3.993491333E0,4.801153450E0,6.004144396E0,3.608628143E0,8.492527389E0
4.003572333E0,4.296815313E0,3.917436851E0,4.385971610E0,7.283246548E0
4.013653333E0,1.789706411E0,2.846198292E0,-1.583890852E-1,3.365855146E0
4.023733333E0,-4.130367887E-1,2.843749478E0,-3.779586988E0,4.747924629E0
4.033814333E0,-1.364996826E0,2.724656314E0,-4.952967049E0,5.815397747E0
4.043895333E0,-1.789286581E0,2.109696457E0,-5.535383642E0,6.188120690E0
4.053976333E0,-2.233481428E0,4.344071925E-1,-5.509293365E0,5.960659551E0
4.064057333E0,-2.052468004E0,-1.338191435E0,-5.890863363E0,6.380098149E0
4.074138333E0,-1.953359452E0,-1.485205640E0,-5.537957001E0,6.057261484E0
4.084219333E0,-1.797917656E0,-1.383888010E0,-4.035048332E0,4.629175841E0
4.094300333E0,-9.125515580E-1,-1.375572685E0,-2.063112421E0,2.642230766E0
4.104380333E0,2.299534500E-1,-1.553022231E0,6.853214487E-2,1.571449425E0
4.114461333E0,1.063009188E0,-1.946774318E0,1.035566304E0,2.447920822E0
4.124542333E0,1.404721640E0,-2.162616683E0,1.402622782E-1,2.582600880E0
4.134623333E0,1.714606528E0,-2.190842947E0,-1.889424681E0,3.362973980E0
4.144704333E0,2.125615502E0,-2.239020495E0,-2.481668251E0,3.961077044E0
4.154785333E0,2.541258979E0,-2.517373688E0,-1.130666150E0,3.751476167E0
4.164866333E0,2.848865207E0,-3.365594180E0,6.365857103E-1,4.455165375E0
4.174947333E0,3.003511782E0,-4.115908307E0,1.767395775E0,5.393094849E0
4.185027333E0,3.108889133E0,-4.412142870E0,2.014380410E0,5.761069761E0
4.195108333E0,3.751057838E0,-4.568910815E0,2.227975105E0,6.317377146E0
4.205189333E0,4.446401122E0,-4.854399365E0,2.449458278E0,7.023924971E0
4.215270333E0,4.813895702E0,-5.030174269E0,2.706404230E0,7.469997916E0
4.225351333E0,5.007290021E0,-5.251325905E0,2.994858488E0,7.849748689E0
4.235432333E0,5.061172698E0,-5.631534086E0,3.282855493E0,8.252683530E0
4.245513333E0,4.812871855E0,-5.642880608E0,3.482015167E0,8.193306211E0
4.255593333E0,4.317106320E0,-5.388376454E0,2.790310605E0,7.447002153E0
4.265674333E0,3.858037911E0,-5.104631544E0,1.332789778E0,6.535904552E0
4.275755333E0,3.475511309E0,-4.688228513E0,1.961407743E-1,5.839275353E0
4.285836333E0,3.044368909E0,-4.512769943E0,-4.572797459E-1,5.462817898E0
4.295917333E0,2.364099163E0,-3.773837421E0,-8.101124328E-1,4.526267323E0
4.305998333E0,1.584007797E0,-2.599409539E0,-8.513189310E-1,3.160815492E0
4.316079333E0,8.561668575E-1,-1.170041885E0,-1.000090224E0,1.761306378E0
4.326160333E0,3.862939632E-1,2.878654432E-1,-1.013734701E0,1.122384775E0
4.336240333E0,2.409114245E-1,1.550663465E0,-1.108895797E0,1.921521632E0
4.346321333E0,2.855943847E-1,2.066165106E0,-1.554257163E0,2.601214664E0
4.356402333E0,1.120367450E-1,2.148594475E0,-9.203575909E-1,2.340100114E0
4.366483333E0,-2.300247860E-1,2.757758571E0,6.657956222E-1,2.846300678E0
4.376564333E0,-5.140696585E-2,4.028783625E0,1.464587772E0,4.287045313E0
4.386645333E0,6.679853314E-1,5.085784798E0,1.784592437E0,5.431038720E0
4.396726333E0,1.901452550E0,5.003272984E0,1.240495571E0,5.494278079E0
4.406807333E0,3.354799635E0,4.558816182E0,-8.807821736E-2,5.660851821E0
4.416887333E0,4.697979915E0,4.416435311E0,-1.123560029E0,6.545097652E0
4.426968333E0,5.704895008E0,4.227387228E0,-1.375415541E0,7.232454476E0
4.437049333E0,6.036822145E0,3.430336305E0,-1.035265465E0,7.020128443E0
4.447130333E0,5.600931514E0,2.477747692E0,-8.919699436E-1,6.189125773E0
4.457211333E0,4.530657161E0,1.844252163E0,-1.383753086E0,5.083590557E0
4.467292333E0,3.195200468E0,1.275067819E0,-1.253914931E0,3.661612572E0
4.477373333E0,1.870560540E0,4.264386070E-1,-8.893090220E-1,2.114643506E0
4.487453333E0,2.923929423E-1,-3.982801706E-1,-8.450416526E-1,9.788851422E-1
4.497534333E0,-1.704527682E0,-7.168622071E-1,-7.407486677E-1,1.991987608E0
4.507615333E0,-2.733963912E0,-9.027282357E-1,-9.159932292E-1,3.021344160E0
4.517696333E0,-3.085892034E0,-1.244260009E0,-2.277553939E0,4.032141436E0
4.527777333E0,-2.891408379E0,-1.010881845E0,-3.094714021E0,4.354236947E0
4.537858333E0,-2.177866806E0,-7.919328547E-1,-2.913032260E0,3.722367313E0
4.547939333E0,-9.162364733E-1,-1.423202934E0,-2.324476967E0,2.875445885E0
4.558020333E0,-8.344152153E-2,-1.888258308E0,-1.372313447E0,2.335749584E0
4.568100333E0,9.301241952E-1,-1.947999895E0,-1.547398964E0,2.655989112E0
4.578181333E0,1.325141035E0,-9.693531650E-1,-2.387425752E0,2.897489611E0
4.588262333E0,1.092431792E0,9.509970009E-1,-2.280667581E0,2.701711889E0
4.598343333E0,8.159859610E-1,2.217695700E0,-1.825865008E0,2.986266956E0
4.608424333E0,8.770063341E-1,2.616814946E0,-1.080531539E0,2.963850364E0
4.618505333E0,1.078418940E0,2.447707037E0,-2.122817025E-1,2.683154985E0
4.628586333E0,8.808602339E-1,1.902961716E0,-1.198690903E-1,2.100368216E0
4.638666333E0,-2.753839767E-1,9.279385060E-1,-4.280451295E-1,1.058361393E0
4.648747333E0,-1.533512996E0,-1.126805234E-1,-7.613007537E-1,1.715790736E0
4.658828333E0,-2.206494189E0,-1.152828852E0,-8.722265276E-1,2.637879846E0
4.668909333E0,-2.173017710E0,-2.042656376E0,-1.034318655E0,3.156622581E0
4.678990333E0,-1.820537025E0,-2.406204670E0,-1.487002197E0,3.363829887E0
4.689071333E0,-1.473549215E0,-2.393624970E0,-1.848095537E0,3.363962679E0
4.699152333E0,-1.252312794E0,-2.179605768E0,-1.331529703E0,2.844633542E0
4.709232333E0,-1.111998914E0,-1.527127837E0,-4.354526746E-1,1.938628393E0
4.719313333E0,-8.972014475E-1,-5.041627210E-1,4.955252141E-1,1.142232780E0
4.729394333E0,-8.054989797E-1,1.387216830E-1,1.231331230E0,1.477920468E0
4.739475333E0,-1.029418103E0,2.856107569E-1,1.241756816E0,1.638058340E0
4.749556333E0,-1.672717659E0,2.411520374E-1,8.400209409E-1,1.887266238E0
4.759637333E0,-2.621859924E0,4.987049299E-1,7.985489792E-1,2.785773957E0
4.769718333E0,-3.858539602E0,8.767443788E-1,1.182596150E0,4.129835617E0
4.779799333E0,-5.000849898E0,3.995472622E-1,1.875590023E0,5.355929018E0
4.789879333E0,-5.198119751E0,-1.003776893E0,2.187605343E0,5.728318613E0
4.799960333E0,-4.606193247E0,-2.652030387E0,1.251264389E0,5.460397785E0
4.810041333E0,-3.872961760E0,-3.670446954E0,2.069382244E-1,5.339928563E0
4.820122333E0,-3.119053348E0,-4.077776860E0,2.514624327E-1,5.140038061E0
4.830203333E0,-1.937101854E0,-4.159082978E0,8.899275112E-1,4.673575268E0
4.840284333E0,-8.359378302E-1,-3.955882879E0,1.633371745E0,4.360700020E0
4.850365333E0,-3.736721635E-2,-2.891748102E0,2.826230051E0,4.043659196E0
4.860445333E0,1.641474232E0,-1.186787142E0,4.223790898E0,4.684368786E0
4.870526333E0,5.259461721E0,2.636199635E-1,-1.404453837E0,5.450130610E0
4.880607333E0,8.950946957E0,2.805326255E0,-8.119194564E0,1.240607219E1
4.890688333E0,9.996299307E0,6.729954012E0,-8.132588196E0,1.453813164E1
4.900769333E0,8.166550578E0,8.577381213E0,-4.633993541E0,1.271762214E1
4.910850333E0,6.044335232E0,8.456499385E0,-1.218985712E0,1.046576784E1
4.920931333E0,3.016099083E-1,5.228716477E0,3.516433340E0,6.308387113E0
4.931011333E0,-3.768030551E0,2.158849906E0,4.366156273E0,6.158084747E0
4.941092333E0,-4.042885355E0,6.008224583E-1,-4.360795546E0,5.976825864E0
4.951173333E0,-3.667858391E0,-2.736736661E-1,-8.830998344E0,9.566327102E0
4.961254333E0,-3.939873787E0,-3.164004403E-1,-8.664853805E0,9.523781085E0
4.971335333E0,-4.429331930E0,4.526113290E-1,-7.987940944E0,9.145000760E0
4.981416333E0,-4.318755235E0,2.160977708E0,-6.018145553E0,7.716187358E0
4.991497333E0,-2.524684462E0,4.075805764E0,-2.977653933E0,5.643814951E0
5.001578333E0,3.893421167E-1,4.130123473E0,-4.684792104E-1,4.174802985E0
5.011658333E0,2.533017329E0,2.255637698E0,-1.340771227E0,3.647155836E0
5.021739333E0,3.138860791E0,7.288817436E-1,-3.380401669E0,4.670206752E0
5.031820333E0,2.721575416E0,3.385958862E-1,-3.921629890E0,4.785478127E0
5.041901333E0,1.714008358E0,3.238983250E-1,-3.935621692E0,4.304863863E0
5.051982333E0,5.930485851E-1,-1.353753215E-1,-3.868792110E0,3.916322956E0
5.062063333E0,-3.925230020E-1,-6.599196821E-1,-3.764808735E0,3.842310907E0
5.072144333E0,-9.167247158E-1,-1.049809098E0,-3.447322175E0,3.718402012E0
5.082224333E0,-1.046129445E0,-1.065472620E0,-3.012063335E0,3.361866186E0
5.092305333E0,-7.853693551E-1,-6.531012440E-1,-2.678025938E0,2.866211643E0
5.102386333E0,-4.106289053E-1,1.719145721E-1,-2.372801281E0,2.414198964E0
5.112467333E0,-3.352588803E-1,7.629031831E-1,-1.602207840E0,1.805959509E0
5.122548333E0,-5.373462546E-1,1.174420280E0,-1.081219756E0,1.684351553E0
5.132629333E0,-7.571571243E-1,1.328428924E0,-8.627128154E-1,1.755643392E0
5.142710333E0,-7.892174077E-1,1.256574245E0,-6.558332093E-1,1.622331701E0
5.152790333E0,-8.287229508E-1,1.182715725E0,-1.514324335E-1,1.452077821E0
5.162871333E0,-7.617325705E-1,6.900474608E-1,-1.845072088E-1,1.044243706E0
5.172952333E0,-4.437750167E-1,2.267784119E-2,2.552353486E-2,4.450865093E-1
5.183033333E0,6.300725698E-2,-3.177967554E-1,4.738366487E-1,5.740085904E-1
5.193114333E0,5.141836792E-1,-6.777846801E-1,7.399586358E-1,1.127526368E0
5.203195333E0,1.080033941E0,-6.967097783E-1,9.496742877E-1,1.598048523E0
5.213276333E0,1.856036641E0,-4.872309387E-1,9.631282192E-1,2.147063568E0
5.223356333E0,2.043835174E0,-6.750733262E-1,1.164218643E0,2.447118972E0
5.233437333E0,1.805078741E0,-7.858628601E-1,1.032939881E0,2.223253133E0
5.243518333E0,1.646889338E0,-5.093591416E-1,1.047115871E0,2.016963776E0
5.253599333E0,1.461007815E0,-3.967458612E-1,1.631703535E0,2.225849846E0
5.263680333E0,1.265527502E0,-5.358821118E-1,2.034044597E0,2.454804863E0
5.273761333E0,1.131568668E0,-5.122283703E-1,2.295116343E0,2.609671356E0
5.283842333E0,1.228907852E0,-5.869405836E-1,2.272715076E0,2.649518366E0
5.293922333E0,1.605373230E0,-9.205487949E-1,1.783657467E0,2.570227082E0
5.304003333E0,2.066823210E0,-1.205359068E0,1.848077411E0,3.023249706E0
5.314084333E0,2.463298346E0,-1.528293772E0,2.081586553E0,3.568826581E0
5.324165333E0,2.585669459E0,-1.772685167E0,1.605721432E0,3.522277753E0
5.334246333E0,2.591650869E0,-2.035388287E0,1.530264283E0,3.633341228E0
5.344327333E0,2.461835957E0,-2.562111905E0,1.871781439E0,4.016045249E0
5.354408333E0,2.368600934E0,-3.096018827E0,2.146935620E0,4.450273645E0
5.364488333E0,2.508076908E0,-3.638721131E0,2.374385877E0,5.016816674E0
5.374569333E0,2.711063876E0,-4.051396562E0,2.654347054E0,5.550607149E0
5.384650333E0,2.846445630E0,-4.292691856E0,2.551313267E0,5.747926189E0
5.394731333E0,2.904422527E0,-4.382955324E0,2.530640436E0,5.835247090E0
5.404812333E0,2.926741349E0,-4.303757127E0,2.445651741E0,5.750595862E0
5.414893333E0,2.894016530E0,-3.994958652E0,2.312799493E0,5.448308710E0
5.424974333E0,2.677169321E0,-3.548697399E0,2.167319598E0,4.945479051E0
5.435054333E0,2.361082292E0,-2.800657253E0,1.881724044E0,4.118164156E0
5.445135333E0,2.149359875E0,-1.719028192E0,1.557823380E0,3.162533713E0
5.455216333E0,2.064030580E0,-3.377310830E-1,1.495460486E0,2.571125549E0
5.465297333E0,2.300313056E0,1.033020573E0,2.755734630E-1,2.536634068E0
5.475378333E0,2.812774438E0,1.798622831E0,-1.897548949E0,3.840239073E0
5.485459333E0,3.014341995E0,2.527246127E0,-3.061475816E0,4.984562651E0
5.495540333E0,3.134301425E0,3.569174933E0,-3.159433050E0,5.704811331E0
5.505620333E0,2.708026540E0,4.957221483E0,-2.750374707E0,6.282675672E0
5.515701333E0,1.258597674E0,6.754629847E0,-1.558618602E0,7.045451328E0
5.525782333E0,-3.745872527E-1,7.988973563E0,-7.127054214E-2,7.998068122E0
5.535863333E0,-1.585142449E0,7.727749788E0,7.426326406E-1,7.923528041E0
5.545944333E0,-2.675317508E0,6.283157739E0,3.684985471E-1,6.838946273E0
5.556025333E0,-3.462351565E0,4.684993833E0,-1.271886349E-1,5.826939379E0
5.566106333E0,-3.555111210E0,3.614925302E0,-7.750191987E-2,5.070750162E0
5.576186333E0,-2.817451041E0,2.987967544E0,3.789662325E-1,4.124269126E0
5.586267333E0,-1.561562675E0,2.535059177E0,1.106250517E0,3.176286074E0
5.596348333E0,-5.424573058E-1,1.912339481E0,1.473103073E0,2.474133157E0
5.606429333E0,6.098002732E-2,1.444386227E0,1.397816663E0,2.010935494E0
5.616510333E0,3.075460017E-1,1.033605879E0,1.009496566E0,1.477162474E0
5.626591333E0,2.584896165E-1,5.229030472E-1,4.184383003E-1,7.178684349E-1
5.636672333E0,6.158579886E-2,1.237855554E-3,-1.241890863E-1,1.386263758E-1
5.646753458E0,-2.376723593E-1,-3.212390113E-1,-5.792393620E-1,7.037051167E-1
5.656834458E0,-5.584511948E-1,-5.708566475E-1,-1.118609338E0,1.374420569E0
5.666915458E0,-7.674032003E-1,-8.053142077E-1,-1.487723597E0,1.857622175E0
5.676996458E0,-8.925318611E-1,-1.088034101E0,-1.512244334E0,2.065747868E0
5.687077458E0,-1.079559147E0,-1.263112017E0,-1.614056053E0,2.316479411E0
5.697158458E0,-1.317670047E0,-1.357477891E0,-2.095660801E0,2.823259601E0
5.707239458E0,-1.600958290E0,-1.406175842E0,-2.456225261E0,3.251682715E0
5.717319458E0,-1.760774388E0,-1.510380827E0,-2.443003537E0,3.368952800E0
5.727400458E0,-1.759906077E0,-1.382498127E0,-2.159269444E0,3.109825558E0
5.737481458E0,-1.667140585E0,-1.080304667E0,-1.809714706E0,2.687281753E0
5.747562458E0,-1.613327490E0,-6.171373594E-1,-1.597488260E0,2.352796815E0
5.757643458E0,-1.661237236E0,1.387134969E-1,-1.108113440E0,2.001715760E0
5.767724458E0,-1.733799428E0,8.438771796E-1,-5.941265193E-1,2.017715409E0
5.777805458E0,-1.742074993E0,1.431656839E0,-3.504037535E-1,2.281939827E0
5.787885458E0,-1.743922713E0,1.770019421E0,-3.745112389E-1,2.512865664E0
5.797966458E0,-1.809950641E0,1.850827357E0,-5.322059673E-1,2.642863299E0
5.808047458E0,-1.963490338E0,1.642263606E0,-8.490355933E-1,2.696884406E0
5.818128458E0,-1.972485695E0,1.486692002E0,-1.160208915E0,2.728926099E0
5.828209458E0,-1.977987925E0,1.275556061E0,-9.951288611E-1,2.555339693E0
5.838290458E0,-1.932866131E0,9.181151837E-1,-9.256072211E-1,2.331449270E0
5.848371458E0,-1.613408766E0,3.433946961E-1,-1.098185160E0,1.981670611E0
5.858451458E0,-1.185648104E0,-1.600289369E-1,-1.324422704E0,1.784787435E0
5.868532458E0,-8.393029028E-1,-7.421297801E-1,-1.202918440E0,1.643836594E0
5.878613458E0,-5.557252228E-1,-1.371985418E0,-7.151279229E-1,1.643953301E0
5.888694458E0,-3.738768160E-1,-1.922955685E0,-2.741484600E-1,1.978054554E0
5.898775458E0,-1.873775339E-1,-2.368674316E0,1.607206625E-1,2.381503619E0
5.908856458E0,6.569931507E-3,-2.694290553E0,7.590679944E-1,2.799183626E0
5.918936458E0,1.412582052E-1,-2.608013717E0,1.525329526E0,3.024618917E0
5.929017458E0,2.856867707E-1,-1.823792170E0,2.064871117E0,2.769752253E0
5.939098458E0,3.537378359E-1,-9.182391447E-1,2.301261767E0,2.502818272E0
5.949179458E0,5.158536440E-1,-2.255651146E-1,2.783409137E0,2.839780101E0
5.959260458E0,6.856275505E-1,5.894461155E-2,3.052860528E0,3.129459540E0
5.969341458E0,8.964354622E-1,7.181140959E-2,2.818518158E0,2.958512806E0
5.979422458E0,1.088090819E0,1.101580346E-1,2.682457543E0,2.896835324E0
5.989502458E0,8.696698326E-1,-6.889540315E-2,2.940938973E0,3.067603990E0
5.999583458E0,3.832177430E-1,-5.654941660E-1,2.623719923E0,2.711188987E0
6.009664458E0,-2.446170974E-1,-9.203289396E-1,2.110416834E0,2.315319005E0
6.019745458E0,-9.521582580E-1,-1.061908157E0,1.928195375E0,2.398372716E0
6.029826458E0,-1.530895783E0,-1.153373228E0,1.933095927E0,2.722273234E0
6.039907458E0,-1.660335011E0,-1.353158553E0,1.733933914E0,2.755771623E0
6.049988458E0,-1.317522697E0,-1.805383381E0,1.304574331E0,2.587892849E0
6.060068458E0,-7.749402612E-1,-2.172297918E0,8.914197206E-1,2.472658442E0
6.070149458E0,-1.543910515E-1,-2.090293642E0,9.265933540E-1,2.291667373E0
6.080230458E0,-1.331890476E-1,-1.263319008E0,1.997835129E0,2.367500674E0
6.090311458E0,-4.839816409E-1,-5.616502064E-1,3.245035703E0,3.328655268E0
6.100392458E0,-7.152097839E-1,-1.056545091E-1,1.725301085E0,1.870655432E0
6.110473458E0,-4.565008968E-1,1.393093282E0,-1.885023336E0,2.387972977E0
6.120553458E0,-1.727852225E-1,3.640993359E0,-2.733887898E0,4.556405427E0
6.130634458E0,-4.582702643E-1,6.027729725E0,3.440694648E-1,6.054908840E0
6.140715458E0,-4.168366018E-1,6.334712639E0,4.516958596E0,7.791357516E0
6.150796458E0,3.957720074E-1,4.122682307E0,5.027295100E0,6.513588942E0
6.160877458E0,3.665642881E-1,1.732580869E0,8.355063057E-1,1.958130902E0
6.170958458E0,-4.754832977E-1,3.640838993E-1,-3.789370842E0,3.836401025E0
6.181039458E0,-8.685261172E-1,-1.187692875E0,-5.841555548E0,6.024012218E0
6.191119458E0,-8.026013920E-1,-1.503657113E0,-4.978482544E0,5.262170859E0
6.201200458E0,-5.434340832E-1,4.868771821E-1,-3.571911137E0,3.645671292E0
6.211281458E0,-4.421079755E-1,3.175095402E0,-2.263551319E0,3.924328586E0
6.221362458E0,-5.251846308E-1,4.277039444E0,-2.782887857E0,5.129653997E0
6.231443458E0,-6.549834627E-1,3.515768219E0,-4.075913060E0,5.422425360E0
6.241524458E0,-6.621971726E-1,2.409656866E0,-4.230007073E0,4.913034820E0
6.251605458E0,-8.256490695E-1,1.768606149E0,-3.152001824E0,3.707395257E0
6.261685458E0,-1.362868440E0,8.126273203E-1,-1.952252282E0,2.515762810E0
6.271766458E0,-1.863452665E0,5.288777322E-1,-2.120502989E0,2.872055086E0
6.281847458E0,-2.282988049E0,2.690526116E-1,-2.856479744E0,3.666592460E0
6.291928458E0,-2.631691432E0,-6.245586455E-2,-3.279969308E0,4.205698419E0
6.302009458E0,-2.967132161E0,-1.918933386E-1,-3.367986568E0,4.492664002E0
6.312090458E0,-3.140317917E0,-1.055071592E-2,-3.044563622E0,4.373908502E0
6.322170458E0,-3.167080039E0,1.635629940E-1,-2.258738768E0,3.893462424E0
6.332251458E0,-2.880733702E0,5.097438884E-1,-1.682008300E0,3.374554403E0
6.342332458E0,-2.284232336E0,7.916323078E-1,-1.861419003E0,3.051111237E0
6.352413458E0,-1.528130050E0,1.047750878E0,-2.163377405E0,2.848361836E0
6.362494458E0,-7.956692255E-1,1.334538095E0,-2.316759374E0,2.789526024E0
6.372575458E0,-4.509390253E-1,1.514135908E0,-1.817811638E0,2.408400445E0
6.382656458E0,-4.116615236E-1,1.418719874E0,-8.422475606E-1,1.700474123E0
6.392736458E0,-3.263196570E-1,1.223379602E0,-7.150883080E-1,1.454129794E0
6.402817458E0,2.304972410E-3,3.419036561E-1,-2.005706066E0,2.034640078E0
6.412898458E0,2.526149189E-1,-3.989882684E-1,-2.468493889E0,2.513258446E0
6.422979458E0,-5.805700421E-1,1.662842882E-1,-9.110605180E-1,1.093043140E0
6.433060458E0,-1.479908647E0,7.196951830E-1,9.414426506E-2,1.648318508E0
6.443141458E0,-1.125032358E0,1.922985506E-1,-2.796635538E-1,1.175112013E0
6.453221458E0,-4.362139821E-1,-2.009974533E-1,-1.669319258E0,1.737040414E0
6.463302458E0,5.589002609E-2,-2.987775171E-1,-2.174291818E0,2.195435403E0
6.473383458E0,3.644095892E-1,-7.729317427E-2,-1.743795828E0,1.783141182E0
6.483464458E0,7.388810670E-1,1.131295896E-1,-1.133362959E0,1.357665324E0
6.493545458E0,1.001664879E0,2.501099718E-1,-6.000974766E-1,1.194154307E0
6.503626458E0,1.109906781E0,4.416232413E-1,-3.784218933E-1,1.253047197E0
6.513707458E0,1.101188582E0,5.171341842E-1,2.965970538E-1,1.252203606E0
6.523787458E0,9.096957779E-1,5.113629824E-1,8.652130848E-1,1.355592929E0
6.533868458E0,7.331800318E-1,2.954206306E-1,1.031298568E0,1.299385641E0
6.543949458E0,8.075630468E-1,-4.414647818E-4,1.118501603E0,1.379566637E0
6.554030458E0,1.177072577E0,-4.718913531E-1,1.138179238E0,1.704005070E0
6.564111458E0,1.692801676E0,-1.014321762E0,1.177993514E0,2.298280851E0
6.574192458E0,2.083107998E0,-1.476258815E0,8.938164943E-1,2.705103870E0
6.584273458E0,2.253143860E0,-1.822690555E0,1.483398265E0,3.255660997E0
6.594353458E0,2.354474938E0,-1.909816407E0,1.603534573E0,3.429617190E0
6.604434458E0,2.483313072E0,-1.888681061E0,1.732223604E0,3.568551328E0
6.614515458E0,2.669577296E0,-1.935258227E0,2.029949791E0,3.872023179E0
6.624596458E0,2.787433190E0,-1.978065108E0,1.945354614E0,3.932801792E0
6.634677458E0,2.954508607E0,-1.925713232E0,1.930329609E0,4.020406069E0
6.644758083E0,3.032550809E0,-1.863787710E0,1.835983615E0,4.005109845E0
6.654838083E0,3.019194015E0,-2.042400268E0,1.681016028E0,4.014068539E0
6.664919083E0,2.847816802E0,-2.392148548E0,1.677473785E0,4.079994303E0
6.675000083E0,2.467516819E0,-2.432207238E0,2.025619344E0,4.013403173E0
6.685081083E0,2.094757991E0,-1.775426341E0,2.727763524E0,3.870509472E0
6.695162083E0,1.710428107E0,-1.280654249E0,2.882950966E0,3.588460100E0
6.705243083E0,1.195454469E0,-7.529746109E-1,3.061274672E0,3.371570075E0
6.715324083E0,6.933628321E-1,-4.430055231E-1,3.236722716E0,3.339667626E0
6.725404083E0,3.541097188E-1,-2.937956893E-1,3.307564073E0,3.339414574E0
6.735485083E0,1.508634263E-1,-3.031342775E-1,3.148437946E0,3.166593069E0
6.745566083E0,-4.269315273E-2,-3.018625081E-1,2.899642428E0,2.915625129E0
6.755647083E0,-1.824831221E-1,-4.154674762E-1,2.532148433E0,2.572486929E0
6.765728083E0,-2.493770233E-1,-6.847814584E-1,2.068692273E0,2.193308520E0
6.775809083E0,-9.439657241E-2,-7.145332611E-1,1.329274431E0,1.512097552E0
6.785889083E0,6.962370309E-1,-9.163873315E-2,9.390862957E-1,1.172615338E0
6.795970083E0,1.738353825E0,8.703703290E-1,4.190418792E-1,1.988721857E0
6.806051083E0,2.558689822E0,1.813090596E0,-4.959316687E-1,3.174923516E0
6.816132083E0,3.042894242E0,2.725522286E0,-2.095216413E0,4.591035713E0
6.826213083E0,2.896344014E0,2.691956345E0,-3.287147934E0,5.142059816E0
6.836294083E0,2.105653108E0,2.272678823E0,-3.969120390E0,5.035152502E0
6.846374083E0,1.578479254E0,1.945514243E0,-3.526335307E0,4.325697993E0
6.856455083E0,1.563372388E0,1.122554308E0,-1.568388129E0,2.482761109E0
6.866536083E0,1.120498427E0,-4.380850911E-2,-6.936551929E-2,1.123497880E0
6.876617083E0,-3.112548906E-1,-1.827015740E0,-4.143512428E-2,1.853802307E0
6.886698083E0,-1.735409167E0,-2.513737890E0,-9.015237093E-1,3.184849785E0
6.896779083E0,-1.758382877E0,-2.300765339E0,-1.569710185E0,3.293846012E0
6.906859083E0,-1.353336309E0,-1.919711065E0,-2.100121788E0,3.150765187E0
6.916940083E0,-8.371686691E-1,-1.141633773E0,-2.576734037E0,2.940023358E0
6.927021083E0,-1.842036653E-1,-2.184508073E-1,-2.605873051E0,2.621493106E0
6.937102083E0,3.270084590E-1,1.754585695E-1,-2.174622771E0,2.206060841E0
6.947183083E0,9.351750201E-1,9.737379920E-1,-1.886714058E0,2.320001709E0
6.957264083E0,1.389618866E0,1.839638709E0,-1.304716126E0,2.649074432E0
6.967345083E0,1.642283487E0,2.265899561E0,-4.336493933E-1,2.831862932E0
6.977425083E0,1.768296831E0,2.204684476E0,3.790830307E-1,2.851527883E0
6.987506083E0,1.427586592E0,2.061138255E0,6.362010366E-1,2.586705654E0
6.997587083E0,8.881283230E-1,2.081778926E0,4.518719485E-1,2.307978265E0
7.007668083E0,4.221192688E-1,1.790510988E0,-4.423801634E-1,1.892039768E0
7.017749083E0,4.119275719E-1,1.630726465E0,-1.693119764E0,2.386547227E0
7.027830083E0,9.068014061E-1,1.498129156E0,-2.767585694E0,3.275089362E0
7.037910083E0,1.189882658E0,1.214854361E0,-2.720316510E0,3.208085687E0
7.047991083E0,1.184001528E0,1.086733680E0,-1.825443716E0,2.432096723E0
7.058072083E0,1.553588827E0,9.409286803E-1,-1.254507254E0,2.207435950E0
7.068153083E0,1.959242336E0,3.268119925E-1,-8.374943590E-1,2.155651505E0
7.078234083E0,2.123988807E0,-5.735539681E-1,-9.967900550E-1,2.415343251E0
7.088315083E0,1.759052968E0,-1.586080635E0,-1.067866762E0,2.598125968E0
7.098396083E0,9.774334323E-1,-2.399976801E0,-5.277533126E-1,2.644577153E0
7.108476083E0,-8.605230331E-2,-2.681950589E0,1.038418722E-1,2.685339289E0
7.118557083E0,-1.084516416E0,-2.194749472E0,2.682486194E-1,2.462733932E0
7.128638083E0,-1.608756137E0,-1.287348726E0,-1.449305490E-1,2.065518800E0
7.138719083E0,-1.767610953E0,-3.471860307E-1,-7.887478763E-1,1.966496843E0
7.148800083E0,-1.660154332E0,2.267275411E-1,-1.315234097E0,2.130107630E0
7.158881083E0,-1.427661436E0,3.275990278E-1,-1.583907809E0,2.157383194E0
7.168961083E0,-1.051563263E0,2.240372372E-1,-1.678012898E0,1.992913763E0
7.179042083E0,-5.866189867E-1,7.543785274E-2,-1.694043040E0,1.794322860E0
7.189123083E0,-1.879119694E-1,6.266519487E-2,-1.534841484E0,1.547571070E0
7.199204083E0,2.444779336E-2,1.137189889E-1,-1.439816628E0,1.444507399E0
7.209285083E0,-2.783391595E-2,6.837909400E-2,-1.361835237E0,1.363834902E0
7.219366083E0,-2.855008292E-1,-2.514419675E-2,-1.157255779E0,1.192218056E0
7.229446083E0,-6.624538654E-1,-1.565860963E-1,-9.749425185E-1,1.189065702E0
7.239527083E0,-1.090750718E0,-3.347718072E-1,-9.380430794E-1,1.477069433E0
7.249608083E0,-1.526961191E0,-4.745875043E-1,-1.112771332E0,1.948102619E0
7.259689083E0,-1.916084037E0,-4.694910711E-1,-1.067177083E0,2.242914807E0
7.269770083E0,-2.190085732E0,-4.363285875E-1,-9.610138661E-1,2.431132617E0
7.279851083E0,-2.231776965E0,-6.939709425E-1,-8.297248712E-1,2.480094242E0
7.289931083E0,-2.142849585E0,-9.311205608E-1,-4.907965708E-1,2.387398400E0
7.300012083E0,-1.998923880E0,-7.170200819E-1,4.297723970E-1,2.166683823E0
7.310093083E0,-1.846944221E0,-5.866692728E-1,1.658253694E0,2.550527221E0
7.320174083E0,-1.563247257E0,-7.406849331E-1,2.251361629E0,2.839187444E0
7.330255083E0,-1.106542000E0,-7.096870887E-1,2.342095505E0,2.685796403E0
7.340336083E0,-3.837770292E-1,-4.577159482E-1,2.287550631E0,2.364249688E0
7.350416083E0,1.924420998E-1,-2.977296960E-1,2.666008156E0,2.689475120E0
7.360497083E0,3.466752765E-1,-3.997431439E-1,3.104887884E0,3.149651901E0
7.370578083E0,3.970227268E-1,-6.969769961E-1,3.163710873E0,3.263812260E0
7.380659083E0,6.854948187E-1,-8.625379837E-1,3.082700332E0,3.273670150E0
7.390740083E0,1.371931331E0,-5.941233033E-1,3.015344500E0,3.365632263E0
7.400821083E0,2.233630532E0,3.211437017E-1,3.357879363E0,4.045688130E0
7.410902083E0,3.304682565E0,1.398556336E0,2.314386427E0,4.270043467E0
7.420982083E0,5.270832217E0,3.134874744E0,-1.388468719E0,6.287842023E0
7.431063083E0,7.114061117E0,6.099261637E0,-4.329316768E0,1.032249203E1
7.441144083E0,6.536787150E0,9.442124766E0,-3.073087801E0,1.188811066E1
7.451225083E0,3.527106555E0,8.760419528E0,9.388207591E-1,9.490353807E0
7.461306083E0,9.669189692E-2,2.523302180E0,3.120107017E0,4.013909691E0
7.471387083E0,-3.606888304E0,-3.622769342E0,2.252227601E0,5.586289476E0
7.481467083E0,-6.617882184E0,-5.576600665E0,-2.447050103E0,8.993491746E0
7.491548083E0,-8.224004735E0,-4.336718466E0,-4.896184153E0,1.050780663E1
7.501629083E0,-8.835244592E0,-2.960746416E0,-1.823517351E0,9.494881878E0
7.511710083E0,-7.156972078E0,-2.603480955E0,1.582348942E0,7.778443969E0
7.521791083E0,-3.971180949E0,-1.851438975E0,1.166457542E0,4.534173310E0
7.531872083E0,-6.988951752E-1,-2.093823606E-1,3.051650155E-1,7.908357133E-1
7.541952083E0,1.790260435E0,2.033557523E0,-6.200007409E-1,2.779350562E0
7.552033083E0,3.619474728E0,4.031499072E0,-2.659138555E0,6.035279606E0
7.562114083E0,3.955175951E0,4.351706049E0,-4.748789295E0,7.558555557E0
7.572195083E0,2.804517877E0,3.190356635E0,-5.676290429E0,7.089708670E0
7.582276083E0,1.074682569E0,1.933628608E0,-5.198713828E0,5.649821916E0
7.592357083E0,-4.088481358E-1,1.797700140E0,-4.047861628E0,4.447928321E0
7.602437083E0,-1.047956408E0,2.422998458E0,-2.515193554E0,3.646276563E0
7.612518083E0,-1.073126917E0,2.565943585E0,8.504775167E-1,2.908432545E0
7.622599083E0,-1.068731565E0,1.400048545E0,5.362494339E0,5.644348379E0
7.632680083E0,-1.713258452E0,3.395565838E-1,6.135358254E0,6.379120167E0
7.642761000E0,-2.406648181E0,8.209490776E-3,2.834157706E0,3.718127589E0
7.652842000E0,-2.701984320E0,-2.589667493E-1,3.304863828E-1,2.734411141E0
7.662922000E0,-2.740380061E0,-3.029951137E-1,-1.049106848E0,2.949934592E0
7.673003000E0,-2.466607577E0,6.858316183E-2,-2.536943150E0,3.539058792E0
7.683084000E0,-1.999188175E0,1.215299919E0,-3.857088616E0,4.511190512E0
7.693165000E0,-1.492688321E0,1.898133670E0,-4.199047528E0,4.843865192E0
7.703246000E0,-6.219446477E-1,2.387892945E0,-3.619956247E0,4.380973760E0
7.713327000E0,9.621333155E-1,1.947873595E0,-2.206464953E0,3.096514112E0
7.723407000E0,1.996466296E0,5.447885907E-1,-2.323929083E-1,2.082469386E0
7.733488000E0,2.332963032E0,-8.352215463E-1,1.050403760E0,2.691404763E0
7.743569000E0,2.051300315E0,-1.477598997E0,1.611899015E-1,2.533202313E0
7.753650000E0,1.407193843E0,-1.345118632E0,-1.617770497E0,2.531149941E0
7.763731000E0,1.004482067E0,-1.352539333E0,-2.386534052E0,2.921282535E0
7.773812000E0,5.867768615E-1,-1.780590602E0,-1.981500932E0,2.727848222E0
7.783892000E0,1.299964678E-1,-2.287811417E0,-1.114361336E0,2.548093669E0
7.793973000E0,9.018102229E-2,-2.498308257E0,-6.390720195E-1,2.580327462E0
7.804054000E0,2.704670531E-1,-2.298016562E0,-3.779236740E-1,2.344538089E0
7.814135000E0,3.871447331E-1,-2.012052049E0,2.287997943E-1,2.061694410E0
7.824216000E0,4.430891383E-1,-1.700633436E0,1.091744306E0,2.068909785E0
7.834297000E0,8.864770693E-1,-1.309941782E0,1.374514339E0,2.095490094E0
7.844377000E0,1.082659341E0,-8.489595795E-1,1.475924939E0,2.017730914E0
7.854458000E0,1.259720047E0,-7.308294511E-1,1.489775823E0,2.083371855E0
7.864539000E0,1.399871082E0,-8.536472923E-1,1.397109734E0,2.154128212E0
7.874620000E0,1.337517836E0,-9.580119056E-1,1.322519143E0,2.110876040E0
7.884701000E0,1.187958924E0,-1.038253246E0,1.393801965E0,2.105207857E0
7.894782000E0,6.657590041E-1,-1.539280690E0,2.210107768E0,2.774382173E0
7.904862000E0,3.572999597E-2,-1.902160063E0,3.346035828E0,3.849083696E0
7.914943000E0,-3.298999071E-3,-2.064332004E0,3.661122399E0,4.203010198E0
7.925024000E0,6.424756837E-1,-2.210085549E0,3.503667406E0,4.192008878E0
7.935105000E0,1.506826012E0,-2.220829223E0,3.413129119E0,4.341895606E0
7.945186000E0,2.126246417E0,-1.864654852E0,3.551875945E0,4.540229540E0
7.955267000E0,2.486161543E0,-1.057467197E0,3.836492676E0,4.692324812E0
7.965347000E0,2.779062316E0,-3.484016669E-1,3.897798393E0,4.799729512E0
7.975428000E0,3.171917148E0,-3.458850253E-1,3.452196121E0,4.700888523E0
7.985509000E0,3.456255843E0,-1.057397615E0,2.540541526E0,4.417934519E0
7.995590000E0,3.561101682E0,-1.790352529E0,1.816351004E0,4.380175606E0
8.005671000E0,3.429487290E0,-2.402253122E0,1.966733204E0,4.626039627E0
8.015752000E0,3.115233070E0,-2.673931718E0,2.323368920E0,4.717269449E0
8.025832000E0,2.762565275E0,-1.902983935E0,2.334786193E0,4.087094484E0
8.035913000E0,2.520223913E0,-6.881927240E-1,2.320097988E0,3.493993771E0
8.045994000E0,2.487090081E0,3.941754252E-1,1.765530514E0,3.075400678E0
8.056075000E0,2.789652501E0,1.972823664E0,-3.019484621E-1,3.430068098E0
8.066156000E0,2.802060293E0,3.633100787E0,-2.268433744E0,5.118276552E0
8.076237000E0,2.749447631E0,3.887885608E0,-3.917846156E0,6.166411864E0
8.086317000E0,3.837116281E0,2.912065423E0,-4.464277815E0,6.567599469E0
8.096398000E0,5.196027617E0,1.807388391E0,-2.567853286E0,6.071179976E0
8.106479000E0,5.794745078E0,1.427700613E0,-4.160995603E-1,5.982519403E0
8.116560000E0,4.369929774E0,2.842185933E0,-1.347052306E-1,5.214638301E0
8.126641000E0,1.430555223E0,3.970282232E0,-9.372678848E-1,4.322973553E0
8.136721000E0,-8.113444412E-1,3.458770730E0,-5.164274020E-1,3.589996104E0
8.146802000E0,-2.330620637E0,2.881530678E0,3.422924960E-1,3.721851119E0
8.156883000E0,-3.523068760E0,2.478540575E0,5.766044605E-1,4.345992358E0
8.166964000E0,-4.332483328E0,2.003257837E0,6.697623003E-1,4.819962166E0
8.177045000E0,-3.863039035E0,1.083753939E0,6.761492139E-1,4.068755454E0
8.187126000E0,-2.326896838E0,-7.772113198E-1,8.622994173E-1,2.600397395E0
8.197206000E0,-1.213924946E0,-2.345531037E0,5.730478916E-1,2.702501343E0
8.207287000E0,-6.819248012E-1,-2.812323033E0,4.809919596E-2,2.894217651E0
8.217368000E0,-1.814323774E-1,-2.588841282E0,-2.191273302E-2,2.595283618E0
8.227449000E0,2.129061851E-1,-2.327674810E0,1.502851367E-2,2.337439822E0
8.237530000E0,1.763879845E-1,-1.859811603E0,-6.249913394E-2,1.869202521E0
8.247611000E0,-1.234253669E-1,-9.356252557E-1,2.330407798E-2,9.440188136E-1
8.257691000E0,-2.688809958E-1,-7.200144410E-2,-1.315980202E-1,3.078948470E-1
8.267772000E0,-4.054816014E-1,4.912625939E-1,-2.630022052E-1,6.891476076E-1
8.277853000E0,-7.158257881E-1,1.018797805E0,-3.329463065E-1,1.288878881E0
8.287934000E0,-1.439182205E0,1.699109652E0,-1.113882887E-1,2.229490162E0
8.298015000E0,-2.161943668E0,2.306234239E0,2.643058419E-2,3.161236367E0
8.308096000E0,-2.079386538E0,1.847457021E0,-8.295374680E-1,2.902598531E0
8.318176000E0,-1.499982138E0,9.515086323E-1,-1.992283782E0,2.669177731E0
8.328257000E0,-9.274289212E-1,4.283699423E-1,-2.945025592E0,3.117178364E0
8.338338000E0,-7.758375165E-1,2.907089442E-1,-2.428809129E0,2.566232516E0
8.348419000E0,-9.225947356E-1,4.768989086E-1,-9.824357253E-1,1.429613084E0
8.358500000E0,-1.076606595E0,5.543265688E-1,2.977045530E-1,1.246991462E0
8.368581000E0,-9.864431146E-1,3.982082498E-1,2.081579536E-1,1.083960129E0
8.378661000E0,-8.962989298E-1,2.071838075E-1,-5.927682111E-1,1.094372447E0
8.388742000E0,-1.119010603E0,1.314471620E-1,-1.138754604E0,1.601944173E0
8.398823000E0,-1.496497782E0,1.025320959E-1,-1.028318242E0,1.818641485E0
8.408904000E0,-1.809475263E0,-1.644067472E-1,-1.260702964E0,2.211470612E0
8.418985000E0,-2.276188614E0,-5.739936787E-1,-1.396003149E0,2.731177062E0
8.429066000E0,-2.667863770E0,-1.029372495E0,-1.317292610E0,3.148390803E0
8.439146000E0,-2.758268156E0,-1.496120637E0,-1.246291916E0,3.376338804E0
8.449227000E0,-2.662881065E0,-1.917506665E0,-1.020657805E0,3.436496724E0
8.459308000E0,-2.501944348E0,-2.213161184E0,-6.404092777E-1,3.401166269E0
8.469389000E0,-2.205981973E0,-2.285409966E0,-7.641199887E-2,3.177309234E0
8.479470000E0,-1.795529653E0,-2.362493225E0,6.875547928E-1,3.045986304E0
8.489551000E0,-1.288685107E0,-2.441461042E0,1.540671743E0,3.161504506E0
8.499631000E0,-6.959759527E-1,-2.353136510E0,2.309437636E0,3.369738292E0
8.509712000E0,8.058457196E-2,-2.023703796E0,2.534675015E0,3.244448852E0
8.519793000E0,1.014221482E0,-1.615703214E0,2.608597854E0,3.231706183E0
8.529874000E0,1.836698437E0,-1.263986176E0,3.124672230E0,3.838580304E0
8.539955000E0,2.204081043E0,-1.104424431E0,3.545684913E0,4.318519199E0
8.550035000E0,1.868469868E0,-1.211560625E0,3.640191706E0,4.267324039E0
8.560116000E0,9.259940144E-1,-1.546692621E0,3.556623300E0,3.987391663E0
8.570197000E0,-7.440435737E-2,-1.669590569E0,3.264484127E0,3.667413978E0
8.580278000E0,-7.987010068E-1,-1.412387339E0,3.117012962E0,3.514047681E0
8.590359000E0,-1.409433911E0,-1.119672800E0,3.029165272E0,3.523636385E0
8.600440000E0,-2.116069630E0,-1.010301801E0,3.151021830E0,3.927772777E0
8.610520000E0,-2.725735417E0,-5.993068600E-1,3.233886817E0,4.271630394E0
8.620601000E0,-2.556238669E0,1.189503758E0,2.424423425E0,3.718481446E0
8.630682000E0,-6.581649327E-1,4.941429908E0,1.114509124E0,5.108134806E0
8.640763000E0,2.669346039E0,9.741011626E0,2.683508288E0,1.045054700E1
8.650843500E0,5.521398271E0,1.278460256E1,9.534668064E0,1.687725679E1
8.660924500E0,5.475690587E0,7.295217213E0,8.998145097E0,1.281288401E1
8.671004500E0,1.472985544E0,-2.822318264E0,-5.723471028E-1,3.234617133E0
8.681085500E0,-3.352773867E0,-6.914251817E0,-7.178479307E0,1.051563293E1
8.691166500E0,-4.948562926E0,-6.061854075E0,-3.700491117E0,8.656095215E0
8.701247500E0,-2.840710680E0,-5.041136629E0,2.311864523E0,6.231164679E0
8.711328500E0,6.945363683E-1,-4.936122390E0,-7.829158634E-2,4.985360026E0
8.721408500E0,2.912032386E0,-3.059203003E0,-4.802957316E0,6.395862304E0
8.731489500E0,4.187029453E0,1.997820511E0,-5.821327690E0,7.443813439E0
8.741570500E0,4.941886575E0,8.582904493E0,-5.338738856E0,1.125124993E1
8.751651500E0,4.978064468E0,1.238065118E1,-3.685650299E0,1.384361469E1
8.761732500E0,4.568924556E0,9.660750990E0,-2.484085490E0,1.097159341E1
8.771813500E0,2.889072124E0,3.889163225E0,-2.443126329E0,5.425974068E0
8.781893500E0,1.084626636E0,2.656107650E0,-3.950203478E0,4.882154269E0
8.791974500E0,-4.055371499E-1,2.131624101E0,-3.681377154E0,4.273268004E0
8.802055500E0,-1.515188700E0,5.411159545E-1,-2.167233059E0,2.699166984E0
8.812136500E0,-2.924353346E0,7.557584703E-2,-1.761613464E0,3.414796655E0
8.822217500E0,-4.245924071E0,-1.139423525E-1,-2.478850185E0,4.917880877E0
8.832298500E0,-5.253684087E0,-4.319981396E-1,-3.177599764E0,6.155075885E0
8.842378500E0,-6.090852757E0,-9.082673031E-1,-3.551968916E0,7.109143407E0
8.852459500E0,-6.458530354E0,-1.330632155E0,-3.538456001E0,7.483573153E0
8.862540500E0,-6.155446948E0,-9.227859396E-1,-3.488375183E0,7.135111943E0
8.872621500E0,-5.654484993E0,1.957706273E-2,-3.188563294E0,6.491572974E0
8.882702500E0,-4.977811283E0,1.538823438E-1,-3.998586849E0,6.386781798E0
8.892782500E0,-4.157251630E0,-2.699279398E-1,-5.070266288E0,6.562255896E0
8.902863500E0,-3.367730168E0,-8.223617649E-1,-5.273062930E0,6.310552909E0
8.912944500E0,-2.754487638E0,-8.408769733E-1,-4.948581052E0,5.725620549E0
8.923025500E0,-2.255924796E0,-6.294147581E-1,-4.500729357E0,5.073650004E0
8.933106500E0,-1.518119032E0,-2.196500713E-1,-4.011018614E0,4.294322050E0
8.943187500E0,-3.884112400E-1,2.614664340E-1,-3.628620651E0,3.658704117E0
8.953267500E0,7.348201758E-1,5.557398409E-1,-3.124977747E0,3.257958468E0
8.963348500E0,1.710270233E0,4.824543482E-1,-2.767500032E0,3.288896912E0
8.973429500E0,2.594911276E0,2.164493054E-1,-2.143105693E0,3.372434854E0
8.983510500E0,3.243502563E0,1.162812388E-1,-1.867079108E0,3.744304287E0
8.993591500E0,3.495638595E0,2.354521716E-1,-1.502366633E0,3.812090294E0
9.003672500E0,3.336860377E0,3.382029533E-2,-6.650225472E-1,3.402651316E0
9.013752500E0,2.806023828E0,-2.753529865E-1,-4.088291323E-1,2.848987583E0
9.023833500E0,2.079076343E0,-5.182416469E-1,8.055065811E-2,2.144206439E0
9.033914500E0,1.502246765E0,-3.718285364E-1,5.296267605E-1,1.635697499E0
9.043995500E0,9.026574844E-1,-9.521255136E-2,8.048628026E-1,1.213119984E0
9.054076500E0,3.940619892E-1,4.447041392E-2,9.265152937E-1,1.007815984E0
9.064156500E0,1.933533883E-1,8.537928879E-2,8.040962327E-1,8.314119960E-1
9.074237500E0,2.347423196E-1,-1.348134041E-2,5.744094157E-1,6.206705084E-1
9.084318500E0,4.213392502E-1,-1.266313952E-1,5.863962078E-1,7.330912539E-1
9.094399500E0,8.460801181E-1,-1.001622194E-1,1.084934492E0,1.379480659E0
9.104480500E0,1.422532551E0,1.511616343E-1,1.547561517E0,2.107461826E0
9.114561500E0,1.835140739E0,1.208490837E-1,1.323252969E0,2.265688516E0
9.124641500E0,2.234576319E0,8.156339586E-2,1.216336631E0,2.545478091E0
9.134722500E0,2.395486139E0,-2.339219552E-1,9.117154062E-1,2.573771222E0
9.144803500E0,2.522639106E0,-6.966530603E-1,6.373757422E-1,2.693562953E0
9.154884500E0,2.736329110E0,-9.350498897E-1,8.848521280E-1,3.024033496E0
9.164965500E0,2.727615589E0,-1.186306500E0,8.453014883E-1,3.092207063E0
9.175045500E0,2.621671936E0,-1.179295104E0,1.002989200E0,3.044649079E0
9.185126500E0,2.282560617E0,-1.285176485E0,1.423304676E0,2.981200726E0
9.195207500E0,1.621507160E0,-9.972338587E-1,1.843846951E0,2.650194788E0
9.205288500E0,1.116377894E0,-1.027477997E0,2.035198252E0,2.538511880E0
9.215369500E0,7.811511737E-1,-1.294187629E0,2.096441989E0,2.584605925E0
9.225450500E0,4.990411448E-1,-1.658363914E0,2.175681117E0,2.780791481E0
9.235530500E0,3.791869649E-1,-2.135831757E0,1.962484617E0,2.925218953E0
9.245611500E0,5.104502320E-1,-2.463450665E0,1.895871967E0,3.150155415E0
9.255692500E0,9.289705396E-1,-2.647535632E0,1.783290846E0,3.324538679E0
9.265773500E0,1.707755053E0,-2.100039196E0,1.413930420E0,3.053815839E0
9.275854500E0,2.866481406E0,-1.093899443E0,9.305494340E-1,3.206127554E0
9.285935500E0,3.632687389E0,6.693834007E-2,4.021564360E-1,3.655492882E0
9.296015500E0,4.129343162E0,8.649768573E-1,-1.083775501E0,4.355941833E0
9.306096500E0,4.045502861E0,9.480751473E-1,-2.496023165E0,4.847171497E0
9.316177500E0,3.578977205E0,-4.278998262E-1,-3.574045079E0,5.076019535E0
9.326258500E0,2.964539798E0,-1.193402681E0,-4.554420830E0,5.563762690E0
9.336339500E0,2.038185595E0,-1.016537272E0,-4.601127219E0,5.133996516E0
9.346419500E0,1.127689041E0,1.405243796E-1,-3.572755183E0,3.749134470E0
9.356500500E0,7.056013468E-1,1.655960124E0,-2.571217189E0,3.138667715E0
9.366581500E0,1.713865685E-1,2.618810601E0,-1.612274991E0,3.080093012E0
9.376662500E0,-6.885953048E-1,2.685564169E0,-1.013603139E0,2.951916279E0
9.386743500E0,-1.489859439E0,2.168639899E0,-1.892870007E0,3.241240044E0
9.396824500E0,-2.110535533E0,1.839098427E0,-2.200575637E0,3.560783115E0
9.406904500E0,-1.683412802E0,2.003425652E0,-1.176794250E0,2.869222492E0
9.416985500E0,8.992199063E-2,1.418671927E0,-5.062554395E-1,1.508976663E0
9.427066500E0,1.786662936E0,6.378230542E-1,-5.100860236E-1,1.964477143E0
9.437147500E0,2.834247168E0,9.423711884E-1,-3.709205369E-1,3.009751238E0
9.447228500E0,3.463568956E0,1.134109576E0,2.407927260E-1,3.652464316E0
9.457308500E0,3.585976907E0,9.999498904E-1,7.520833491E-1,3.797994145E0
9.467389500E0,3.453642722E0,7.794958270E-1,3.630729157E-1,3.559084677E0
9.477470500E0,3.295830465E0,1.155142010E0,-5.322213162E-1,3.532720064E0
9.487551500E0,3.404208607E0,1.746545774E0,-1.764703425E0,4.213458978E0
9.497632500E0,4.063348271E0,2.280389546E0,-2.310841553E0,5.201054156E0
9.507713500E0,4.964945070E0,2.072877710E0,-2.405102762E0,5.893387892E0
9.517793500E0,5.374840150E0,1.203837038E0,-1.695634652E0,5.763098743E0
9.527874500E0,5.122739201E0,3.261313766E-1,-1.287545192E-1,5.134724562E0
9.537955500E0,4.284927923E0,-3.372633058E-1,4.384107810E-1,4.320481207E0
9.548036500E0,2.853105608E0,-1.062082404E0,2.026533848E-1,3.051114393E0
9.558117500E0,1.242713420E0,-1.882647904E0,9.481494069E-2,2.257806380E0
9.568197500E0,-4.822081804E-2,-2.413170458E0,6.057335347E-2,2.414412152E0
9.578278500E0,-8.297567385E-1,-2.543844033E0,-3.803701490E-2,2.676020464E0
9.588359500E0,-1.074630529E0,-2.521598302E0,-3.614678550E-1,2.764769028E0
9.598440500E0,-9.667476457E-1,-2.486253637E0,-9.591585445E-1,2.834791575E0
9.608521500E0,-7.407942760E-1,-2.351867080E0,-1.943280022E0,3.139489157E0
9.618601500E0,-5.630763423E-1,-2.202827985E0,-2.945605636E0,3.721034622E0
9.628682500E0,-5.662940651E-1,-2.052085596E0,-3.646151480E0,4.222104319E0
9.638763500E0,-8.037459844E-1,-2.064563554E0,-4.076320319E0,4.639484628E0
9.648844583E0,-1.240127782E0,-1.764274532E0,-4.116757616E0,4.647394410E0
9.658925583E0,-1.869141421E0,-1.015729771E0,-3.809555722E0,4.363268433E0
9.669006583E0,-2.487400276E0,-1.032232368E-1,-3.233049495E0,4.080493133E0
9.679086583E0,-3.046019871E0,5.897495860E-1,-2.574810303E0,4.031834536E0
9.689167583E0,-3.437865180E0,1.131960139E0,-2.015974361E0,4.142994494E0
9.699248583E0,-3.673830153E0,1.591715596E0,-1.670588104E0,4.338369641E0
9.709329583E0,-3.813324253E0,1.843545234E0,-1.466765276E0,4.482354433E0
9.719410583E0,-3.778481864E0,1.897044919E0,-1.544444366E0,4.501223503E0
9.729490583E0,-3.501501598E0,1.648107898E0,-1.581518637E0,4.180666727E0
9.739571583E0,-2.983693230E0,9.367812502E-1,-1.179533086E0,3.342346885E0
9.749652583E0,-2.559541469E0,1.602446991E-1,-6.505401635E-1,2.645776521E0
9.759733583E0,-2.467885194E0,-3.005006915E-1,-1.352861515E-1,2.489791224E0
9.769814583E0,-2.481528502E0,-6.260210341E-1,5.408227167E-1,2.615793427E0
9.779895583E0,-2.399668652E0,-1.021147217E0,1.245542303E0,2.890073859E0
9.789975583E0,-2.103776152E0,-1.379569842E0,1.711568899E0,3.042787396E0
9.800056583E0,-1.574638803E0,-1.620901973E0,1.832764138E0,2.909610791E0
9.810137583E0,-9.989155179E-1,-1.959734672E0,1.920187029E0,2.919847671E0
9.820218583E0,-3.090095598E-1,-2.326597168E0,1.910440597E0,3.026272388E0
9.830299583E0,4.198090339E-1,-2.704044878E0,2.000232487E0,3.389546922E0
9.840379583E0,1.204143432E0,-3.032467779E0,2.430442548E0,4.068522240E0
9.850460583E0,2.161994539E0,-3.323775478E0,3.032872406E0,4.991995477E0
9.860541583E0,3.489575617E0,-3.382258744E0,3.481622526E0,5.978169253E0
9.870622583E0,4.947228007E0,-3.417006408E0,4.430342622E0,7.468529540E0
9.880703583E0,6.082101229E0,-3.643387209E0,5.194414371E0,8.789093603E0
9.890784583E0,6.932761179E0,-3.952226615E0,4.235541463E0,9.034549477E0
9.900864583E0,7.281141796E0,-4.359727260E0,3.296982951E0,9.104523283E0
9.910945583E0,6.766868069E0,-4.146411477E0,4.054445592E0,8.911888726E0
9.921026583E0,6.053272702E0,-2.599353991E0,4.033895845E0,7.724704995E0
9.931107583E0,7.056707532E0,-1.276447177E-3,-8.468306082E-1,7.107337399E0
9.941188583E0,8.500273395E0,3.967080882E0,-5.434163661E0,1.084078010E1
9.951268583E0,7.770526848E0,9.340676744E0,-4.293108178E0,1.288643113E1
9.961349583E0,5.031305705E0,1.236289085E1,-4.351466314E0,1.403888764E1
9.971430583E0,3.691896880E-1,9.658126175E0,-4.496925451E0,1.066011448E1
9.981511583E0,-4.821285998E0,4.239988562E0,3.303986746E-1,6.428955201E0
9.991592583E0,-9.404627742E0,1.346291583E0,1.704716255E0,9.652231944E0
1.000167258E1,-1.226009562E1,5.074377465E-1,2.937544665E-1,1.227410809E1
1.001175358E1,-1.387084683E1,-2.486230833E0,7.932630377E0,1.617122012E1
1.002183458E1,-1.291479433E1,-4.371230487E0,1.367834480E1,1.931312209E1
1.003191558E1,-1.040069859E1,-5.321405370E0,7.368220870E0,1.381240620E1
1.004199658E1,-6.799208434E0,-5.123420987E0,-8.174407482E-3,8.513444941E0
1.005207758E1,-2.292645895E0,-1.717718416E0,-5.947613515E0,6.601582255E0
1.006215758E1,2.427403750E0,2.774441262E0,-1.250776497E1,1.303970850E1
1.007223858E1,4.910303425E0,5.990051436E0,-1.688856910E1,1.857997746E1
1.008231958E1,6.515503870E0,8.087275198E0,-1.521267640E1,1.841959104E1
1.009240058E1,7.860253542E0,6.674914171E0,-1.891592682E0,1.048409213E1
1.010248158E1,9.439599938E0,1.903885576E0,1.745239506E1,1.993281015E1
1.011256158E1,6.491228569E0,-7.782848686E-1,7.116854331E0,9.663922146E0
1.012264258E1,2.158110234E0,-8.223220038E-1,-2.180219872E0,3.176005659E0
1.013272358E1,-1.393538840E0,-7.770791727E-1,-1.205906513E0,2.000003265E0
1.014280458E1,-3.509251497E0,-8.899514848E-1,-1.505881394E0,3.921037935E0
1.015288558E1,-4.650812180E0,-2.723194510E-1,-3.915397635E0,6.085601898E0
1.016296558E1,-5.190564564E0,1.692172515E-1,-5.345073729E0,7.452543736E0
1.017304658E1,-5.295830233E0,4.497888780E-1,-4.428715049E0,6.918211104E0
1.018312758E1,-5.014646403E0,4.671516001E-1,-2.175133963E0,5.485992793E0
1.019320858E1,-4.021771059E0,3.343005216E-1,-5.159004217E-1,4.068482830E0
1.020328958E1,-2.518698667E0,3.599984497E-1,-2.633042139E-1,2.557884081E0
1.021337058E1,-1.335968909E0,-1.601458812E-1,-2.017014581E-1,1.360567200E0
1.022345058E1,-7.757226187E-1,-7.991108966E-1,-8.645810008E-1,1.409902164E0
1.023353158E1,-6.833816350E-1,-1.431919963E0,-2.101783420E0,2.633419599E0
1.024361258E1,-8.467978638E-1,-1.888199251E0,-2.710312509E0,3.410008347E0
1.025369358E1,-7.974596429E-1,-1.718220107E0,-2.438674843E0,3.087937371E0
1.026377458E1,-7.594182426E-1,-1.480113299E0,-1.923787744E0,2.543307046E0
1.027385458E1,-5.847075319E-1,-1.044192263E0,-1.701429242E0,2.080163899E0
1.028393558E1,-5.716208786E-1,-6.577831095E-1,-1.427306510E0,1.672313643E0
1.029401658E1,-4.459110045E-1,-5.591166079E-2,-1.049460019E0,1.141634386E0
1.030409758E1,-6.728391051E-3,2.149442321E-1,-6.945439696E-1,7.270747004E-1
1.031417858E1,5.996325499E-1,1.489262438E-1,-1.982381523E-1,6.488733204E-1
1.032425858E1,1.238094705E0,-9.632176816E-2,2.416958284E-1,1.265137642E0
1.033433958E1,1.802269739E0,-4.462910736E-1,6.912590039E-1,1.981209465E0
1.034442058E1,2.147819134E0,-8.252760172E-1,9.935811031E-1,2.506274316E0
1.035450158E1,2.397808653E0,-8.390532267E-1,6.383007717E-1,2.619336658E0
1.036458258E1,2.306341828E0,-1.034427997E0,1.014250937E0,2.723593008E0
1.037466258E1,1.978124750E0,-1.126629233E0,1.178530946E0,2.563436394E0
1.038474358E1,1.543779538E0,-1.291155263E0,1.531817304E0,2.529189876E0
1.039482458E1,1.343469132E0,-1.343887793E0,1.821494215E0,2.632258514E0
1.040490558E1,1.385773737E0,-1.407757514E0,1.800848866E0,2.673051946E0
1.041498658E1,1.542571211E0,-1.427189566E0,1.950546942E0,2.867233749E0
1.042506758E1,1.754258544E0,-1.293502920E0,2.252451550E0,3.134343763E0
1.043514758E1,2.125938268E0,-1.163207660E0,2.089723538E0,3.199939069E0
1.044522858E1,2.599498124E0,-1.049225546E0,1.797406025E0,3.330004980E0
1.045530958E1,3.030308987E0,-1.124496168E0,1.498733758E0,3.562789226E0
1.046539058E1,3.042194915E0,-1.595553709E0,1.315873783E0,3.678622751E0
1.047547158E1,2.798244984E0,-1.630907729E0,1.705072496E0,3.660233221E0
1.048555158E1,2.362280678E0,-2.002761993E0,2.038255030E0,3.707547595E0
1.049563258E1,1.739868546E0,-2.141118810E0,1.966915491E0,3.388257496E0
1.050571358E1,1.227857692E0,-1.941912943E0,1.804478817E0,2.921438719E0
1.051579458E1,9.027288204E-1,-1.105861092E0,1.181530495E0,1.853068371E0
1.052587558E1,7.117517406E-1,4.592631215E-1,8.763701570E-1,1.218826406E0
1.053595558E1,9.077808148E-1,1.950161610E0,-1.423421328E-1,2.155796279E0
1.054603658E1,1.518408761E0,3.094567548E0,-2.147792237E0,4.061394461E0
1.055611758E1,2.197987075E0,3.556205224E0,-3.655305004E0,5.553287085E0
1.056619858E1,3.023844305E0,3.250571846E0,-3.870403018E0,5.889810798E0
1.057627958E1,3.313461282E0,3.835513267E0,-3.344898545E0,6.072769876E0
1.058636058E1,2.382364110E0,5.555657693E0,-2.626964543E0,6.591049526E0
1.059644058E1,9.296844846E-1,7.172323358E0,-1.912303666E0,7.480871668E0
1.060652158E1,-3.936784118E-1,7.785233181E0,-7.267330380E-1,7.828983285E0
1.061660258E1,-1.569626570E0,6.615850861E0,7.539643984E-1,6.841174789E0
1.062668358E1,-2.568822462E0,4.972321917E0,1.387937061E0,5.766212221E0
1.063676458E1,-3.006535962E0,3.561163663E0,6.233446904E-1,4.702095674E0
1.064684546E1,-2.926409227E0,1.537225394E0,-5.914435975E-1,3.358085527E0
1.065692646E1,-1.941837806E0,2.706313598E-1,-1.372626858E0,2.393340738E0
1.066700746E1,-9.184718639E-1,-5.060531259E-1,-1.672006638E0,1.973648026E0
1.067708846E1,-1.642219752E-1,-9.790069181E-1,-1.407602563E0,1.722430950E0
1.068716946E1,1.597050011E-2,-1.652709072E0,-9.112710178E-1,1.887357200E0
1.069724946E1,-1.835505313E-1,-2.106970485E0,-5.851016343E-1,2.194392706E0
1.070733046E1,-5.803478479E-1,-2.266296587E0,-4.789483577E-1,2.387947942E0
1.071741146E1,-1.073280991E0,-2.685065986E0,-6.413419086E-1,2.961896500E0
1.072749246E1,-1.492197155E0,-3.089233133E0,-1.000209507E0,3.573574227E0
1.073757346E1,-1.799602239E0,-3.073056226E0,-1.253236070E0,3.775293821E0
1.074765346E1,-2.146026378E0,-2.675595251E0,-1.415223824E0,3.710403971E0
1.075773446E1,-2.563107101E0,-1.828699738E0,-1.253896805E0,3.389088069E0
1.076781546E1,-2.833133858E0,-9.479868543E-1,-8.561482195E-1,3.107783183E0
1.077789646E1,-2.856656038E0,-3.498570389E-1,-4.348701458E-1,2.910669289E0
1.078797746E1,-2.559189466E0,6.974558830E-2,-2.075363946E-1,2.568537819E0
1.079805746E1,-1.967244251E0,4.462203223E-1,-2.799681938E-1,2.036552162E0
1.080813846E1,-1.499602654E0,4.668270797E-1,-9.815821780E-1,1.852090498E0
1.081821946E1,-1.106634094E0,1.725560117E-1,-2.014599827E0,2.305000447E0
1.082830046E1,-5.417223108E-1,5.106379277E-1,-2.268857960E0,2.387871562E0
1.083838146E1,1.152135372E-1,1.376995897E0,-1.205979165E0,1.834060415E0
1.084846146E1,4.842646462E-1,2.195191521E0,2.441380642E-1,2.261190274E0
1.085854246E1,5.718828338E-1,2.903473524E0,1.521382363E0,3.327433361E0
1.086862346E1,4.874507940E-1,3.122621319E0,1.844779435E0,3.659451235E0
1.087870446E1,7.739608526E-2,2.443951371E0,7.761985821E-1,2.565418620E0
1.088878546E1,-4.935517788E-1,1.380631111E0,-2.484049237E-1,1.487091332E0
1.089886546E1,-8.408582622E-1,8.138476342E-1,-7.646009222E-1,1.397857346E0
1.090894646E1,-8.734980047E-1,7.175048161E-1,-1.127139110E0,1.596325311E0
1.091902746E1,-8.170337820E-1,7.045111334E-1,-1.345444029E0,1.724557849E0
1.092910846E1,-5.925983495E-1,3.890532643E-1,-1.142487466E0,1.344549314E0
1.093918946E1,-5.117494833E-1,2.458257169E-1,-9.951768082E-1,1.145728893E0
1.094927046E1,-4.374424821E-1,4.467354620E-1,-8.660378346E-1,1.068152624E0
1.095935046E1,-2.433435738E-1,7.951891690E-1,-6.415228799E-1,1.050282588E0
1.096943146E1,-9.943424106E-2,1.387955918E0,-2.559107020E-1,1.414849493E0
1.097951246E1,-4.940546393E-2,2.092464128E0,-1.460385963E-1,2.098135911E0
1.098959346E1,-2.983132482E-2,2.414312419E0,-4.487425187E-1,2.455842872E0
1.099967446E1,7.067588031E-2,2.391000740E0,-7.864127907E-1,2.518000138E0
1.100975446E1,1.778547585E-1,2.161509220E0,-9.990687150E-1,2.387863631E0
1.101983546E1,2.498983026E-1,1.665395191E0,-7.846039546E-1,1.857846514E0
1.102991646E1,1.875266379E-1,1.095367679E0,-3.362321493E-1,1.161054973E0
1.103999746E1,-1.752486545E-1,5.125043589E-1,1.692000023E-1,5.674517156E-1
1.105007846E1,-4.362578362E-1,-1.743972999E-1,4.366256261E-1,6.413869778E-1
1.106015846E1,-4.239015001E-1,-8.740751249E-1,4.741401923E-1,1.080975822E0
1.107023946E1,-5.027669907E-1,-1.269322929E0,2.623084331E-1,1.390237771E0
1.108032046E1,-6.560973573E-1,-1.742322330E0,-9.403199852E-3,1.861783893E0
1.109040146E1,-9.174152720E-1,-1.956409945E0,-1.231838769E-1,2.164339373E0
1.110048246E1,-1.144924586E0,-2.142600494E0,-4.022942841E-1,2.462403272E0
1.111056246E1,-1.362596544E0,-2.403781584E0,-4.332962215E-1,2.796887710E0
1.112064346E1,-1.441206511E0,-2.600496536E0,-9.341160893E-2,2.974623367E0
1.113072446E1,-1.110150025E0,-2.830033665E0,4.656722546E-2,3.040344080E0
1.114080546E1,-8.100405121E-1,-2.811816664E0,1.606686223E-1,2.930578952E0
1.115088646E1,-6.705440730E-1,-2.868805967E0,3.017160353E-1,2.961538383E0
1.116096646E1,-6.801288289E-1,-3.009659545E0,3.357383519E-1,3.103763206E0
1.117104746E1,-8.466177696E-1,-3.356648524E0,5.181498456E-1,3.500332874E0
1.118112846E1,-1.048097034E0,-3.624521168E0,7.569401926E-1,3.848196921E0
1.119120946E1,-1.073437112E0,-3.520238416E0,8.976417428E-1,3.788153433E0
1.120129046E1,-9.559308815E-1,-3.284750576E0,9.607858247E-1,3.553378617E0
1.121137046E1,-6.463699293E-1,-3.151860906E0,1.056784242E0,3.386563773E0
1.122145146E1,-3.364710081E-1,-3.166186000E0,1.292313597E0,3.436280104E0
1.123153246E1,-2.452152675E-1,-3.250775914E0,1.596159773E0,3.629793464E0
1.124161346E1,-2.283448809E-1,-3.282284220E0,1.569771581E0,3.645505987E0
1.125169446E1,-3.440478301E-1,-3.291238062E0,1.975118111E0,3.853791437E0
1.126177446E1,-4.343323481E-1,-2.979256362E0,2.528630748E0,3.931740902E0
1.127185546E1,-4.681731087E-1,-2.375465273E0,3.071579220E0,3.911089391E0
1.128193646E1,-4.599528006E-1,-1.681211325E0,3.570312216E0,3.973053916E0
1.129201746E1,-1.693029132E-1,-1.082910771E0,3.604271383E0,3.767244539E0
1.130209846E1,4.019984150E-1,-2.034737492E-1,3.243791415E0,3.274933135E0
1.131217846E1,1.481066103E0,1.970486532E0,2.570693863E0,3.561578430E0
1.132225946E1,3.644375973E0,5.450194387E0,1.599913685E0,6.748764250E0
1.133234046E1,5.740109864E0,9.602855369E0,1.799282981E0,1.133142144E1
1.134242146E1,7.224274700E0,1.332242127E1,4.934305660E0,1.593814374E1
1.135250246E1,7.813511485E0,1.134561332E1,6.347684687E0,1.516795979E1
1.136258246E1,4.976122023E0,7.866686064E-1,-4.467056412E-1,5.057685618E0
1.137266346E1,-1.580810539E0,-5.342971070E0,-4.987431123E0,7.478019191E0
1.138274446E1,-6.440741955E0,-4.487529268E0,-6.525030738E0,1.020769817E1
1.139282546E1,-4.472217164E0,-2.969481572E0,-2.253571876E0,5.822124472E0
1.140290646E1,-1.731800558E0,-6.413828391E-1,-1.537935246E0,2.403278997E0
1.141298646E1,-2.057217697E0,2.437869682E0,-3.933809055E0,5.064603333E0
1.142306746E1,-2.437648072E0,4.616517676E0,-5.536479995E0,7.609663219E0
1.143314846E1,-1.671464601E0,6.390219673E0,-6.200214400E0,9.059324478E0
1.144322946E1,-1.184769852E0,8.212103312E0,-5.022095756E0,9.698647648E0
1.145331046E1,-1.547923752E0,8.687511765E0,-3.760639963E0,9.592254247E0
1.146339046E1,-9.363681445E-1,6.654535455E0,-2.585455744E0,7.200292274E0
1.147347146E1,-5.215599418E-2,4.404687086E0,-5.834188056E-1,4.443463297E0
1.148355246E1,1.592787391E-1,2.959151881E0,6.056820792E-1,3.024698390E0
1.149363346E1,2.147851878E-1,1.465311658E0,8.748913962E-1,1.720088918E0
1.150371446E1,1.560621858E-1,-2.804441571E-2,6.904745999E-1,7.084469410E-1
1.151379446E1,-6.963975370E-2,-1.294975834E0,1.775042179E-1,1.308938445E0
1.152387546E1,-2.851564282E-1,-2.446675588E0,3.134663075E-2,2.463436266E0
1.153395646E1,-2.610892886E-1,-3.319355568E0,-1.187130958E-1,3.331723548E0
1.154403746E1,4.671340585E-1,-4.235657530E0,-8.314173478E-1,4.341689043E0
1.155411846E1,1.694498538E0,-4.816692426E0,-6.751399845E-1,5.150501453E0
1.156419846E1,1.426366278E0,-3.042769403E0,2.652750472E0,4.281360936E0
1.157427946E1,1.690680891E0,-2.168222408E0,1.643468717E0,3.203213966E0
1.158436046E1,2.143761166E0,-1.767261289E0,1.175428048E0,3.016712698E0
1.159444146E1,2.416812689E0,-1.344776570E0,1.124645857E0,2.985671767E0
1.160452246E1,2.614291872E0,-1.273224776E0,7.361717597E-1,2.999595337E0
1.161460246E1,2.270491087E0,-1.223208278E0,7.212870875E-1,2.677988673E0
1.162468346E1,1.640714971E0,-1.114303302E0,6.876232052E-1,2.099152957E0
1.163476446E1,1.124480381E0,-1.316971890E0,6.181427881E-2,1.732827773E0
1.164484546E1,5.452905741E-1,-1.680845289E0,-3.161240132E-1,1.795137067E0
1.165492546E1,8.454021335E-2,-1.926229541E0,-3.834393525E-1,1.965841558E0
1.166500546E1,-6.871677071E-2,-2.028316079E0,-2.438148594E-1,2.044072846E0
1.167508646E1,1.288337490E-1,-1.949262893E0,-1.981516135E-1,1.963539667E0
1.168516746E1,4.787007281E-1,-1.764300259E0,-5.002117574E-2,1.828773335E0
1.169524846E1,9.108321843E-1,-1.432984741E0,4.671925306E-3,1.697964182E0
1.170532946E1,1.109177341E0,-1.144842725E0,-2.589264035E-2,1.594242662E0
1.171540946E1,1.014972849E0,-9.980787814E-1,1.080156147E-2,1.423533566E0
1.172549046E1,7.169478688E-1,-7.977479106E-1,1.375329441E-1,1.081356225E0
1.173557146E1,5.088618359E-1,-4.501689470E-1,1.999319445E-1,7.082127020E-1
1.174565246E1,3.740080860E-1,-1.506476641E-1,4.770673084E-1,6.246358810E-1
1.175573346E1,3.995212421E-1,-2.563559675E-1,8.883569491E-1,1.007230695E0
1.176581346E1,4.728374326E-1,-4.937546772E-1,1.165964768E0,1.351607472E0
1.177589446E1,6.140272254E-1,-5.770652211E-1,1.132485219E0,1.411579426E0
1.178597546E1,7.659697554E-1,-5.607871574E-1,9.442645168E-1,1.338965041E0
1.179605646E1,7.840405753E-1,-6.413126725E-1,6.779022092E-1,1.218832627E0
1.180613746E1,7.298325008E-1,-8.721332645E-1,6.143874139E-1,1.292572553E0
1.181621746E1,5.092635396E-1,-1.165344817E0,8.892563239E-1,1.551823026E0
1.182629846E1,1.706504041E-1,-1.164256065E0,1.249211431E0,1.716141878E0
1.183637946E1,-1.591875225E-2,-8.728168041E-1,1.270024011E0,1.541111147E0
1.184646046E1,-3.473860055E-2,-6.673345363E-1,1.031484509E0,1.229024998E0
1.185654146E1,-1.643854049E-1,-5.508439672E-1,7.841408551E-1,9.722800616E-1
1.186662146E1,-2.936182263E-1,-3.441624355E-1,4.643648171E-1,6.483009550E-1
1.187670246E1,-4.893154711E-1,-2.875660658E-1,6.499057406E-1,8.628449131E-1
1.188678346E1,-7.323465112E-1,-2.537112719E-1,1.203271612E0,1.431280334E0
1.189686446E1,-8.528272203E-1,-5.123494077E-1,1.520133398E0,1.816761330E0
1.190694546E1,-8.373908633E-1,-8.137008691E-1,1.860138317E0,2.196234760E0
1.191702546E1,-7.971099794E-1,-1.299427904E0,2.528555903E0,2.952539950E0
1.192710646E1,-4.601592073E-1,-1.223956137E0,2.828059645E0,3.115724069E0
1.193718746E1,1.715611079E-1,-1.290123814E0,3.302652411E0,3.549840225E0
1.194726846E1,7.503264070E-1,-1.254079823E0,3.231469578E0,3.546561934E0
1.195734946E1,1.228400021E0,-1.201943709E0,2.643605719E0,3.153139148E0
1.196742946E1,1.579164256E0,-1.404001848E0,2.019353467E0,2.922801628E0
1.197751046E1,1.599992330E0,-1.764489124E0,1.337812536E0,2.731874761E0
1.198759146E1,1.563556283E0,-1.621414774E0,5.952139552E-1,2.329801230E0
1.199767246E1,1.420233718E0,-1.262778726E0,-7.772246953E-1,2.053229688E0
1.200775346E1,9.352869943E-1,-9.454772294E-2,-2.211637985E0,2.403132041E0
1.201783346E1,5.489328048E-1,1.919853153E0,-3.368849909E0,3.916160500E0
1.202791446E1,1.285052232E0,3.669665766E0,-4.702385792E0,6.101658644E0
1.203799546E1,1.869551895E0,4.073535290E0,-4.577498621E0,6.406434864E0
1.204807646E1,2.178047777E0,3.803464093E0,-3.214721982E0,5.435500773E0
1.205815746E1,2.459250026E0,3.470611927E0,-2.610766586E0,4.990907733E0
1.206823746E1,1.151803543E0,3.449181882E0,-1.368007557E0,3.885222224E0
1.207831846E1,-5.554881182E-1,2.935608652E0,4.064797211E-1,3.015226520E0
1.208839946E1,-1.830512960E0,2.436159371E0,1.268690845E0,3.300791820E0
1.209848046E1,-2.914368641E0,2.598253545E0,1.791789774E0,4.295925587E0
1.210856146E1,-3.873122850E0,3.362554212E0,2.266607659E0,5.607616403E0
1.211864146E1,-3.581341819E0,4.182600480E0,1.214716440E0,5.638766889E0
1.212872246E1,-1.870189534E0,4.585680045E0,6.295054630E-1,4.992228710E0
1.213880346E1,5.974217176E-2,3.902736951E0,1.137516310E0,4.065571078E0
1.214888446E1,1.524269718E0,2.662821423E0,1.262547614E0,3.317837034E0
1.215896446E1,2.369675067E0,1.434792700E0,1.036046361E0,2.957597349E0
1.216904546E1,3.124846477E0,6.729940563E-1,5.235403937E-1,3.239086453E0
1.217912646E1,3.473188210E0,2.634591651E-1,-1.436953247E-2,3.483195883E0
1.218920746E1,3.369645715E0,6.868548810E-2,-6.284240936E-1,3.428432118E0
1.219928846E1,2.986024514E0,-1.040763456E-1,-1.042686605E0,3.164548885E0
1.220936846E1,2.342326178E0,9.225736856E-2,-1.030456861E0,2.560633650E0
1.221944946E1,1.640774320E0,4.082327163E-1,-7.603216374E-1,1.853883306E0
1.222953046E1,9.748296672E-1,3.010719645E-1,-5.177586669E-1,1.144120293E0
1.223961146E1,3.280878550E-1,-1.781178832E-2,-7.584680700E-1,8.265789216E-1
1.224969246E1,-3.888018340E-1,-3.420404810E-1,-1.188886292E0,1.296768743E0
1.225977246E1,-1.364269432E0,-6.053376782E-1,-1.599444154E0,2.187666883E0
1.226985346E1,-2.377223530E0,-7.716780996E-1,-2.044382181E0,3.228959168E0
1.227993446E1,-3.116932563E0,-7.625985432E-1,-2.491358549E0,4.062473700E0
1.229001546E1,-3.455447758E0,-7.323824716E-1,-2.901543066E0,4.571154718E0
1.230009646E1,-3.639635928E0,-6.614803040E-1,-2.958025122E0,4.736498549E0
1.231017646E1,-3.715661718E0,-2.972525632E-1,-2.554403520E0,4.518791701E0
1.232025746E1,-3.744824706E0,1.861034256E-1,-2.055442482E0,4.275884746E0
1.233033846E1,-3.676574543E0,5.414615250E-1,-1.584606552E0,4.039970158E0
1.234041946E1,-3.463686192E0,7.747870642E-1,-1.043459607E0,3.699489828E0
1.235050046E1,-3.114327044E0,7.298506272E-1,-4.547087252E-1,3.230862872E0
1.236058046E1,-2.696404322E0,5.179399306E-1,-1.328095633E-1,2.748908223E0
1.237066146E1,-2.256725572E0,2.430822033E-1,-1.847430709E-1,2.277285504E0
1.238074246E1,-1.731297989E0,-6.397789478E-2,-3.701764056E-1,1.771585863E0
1.239082346E1,-1.319380650E0,-4.485627168E-1,-1.554128525E-1,1.402186495E0
1.240090446E1,-9.509677649E-1,-1.019139283E0,6.629397690E-2,1.395485385E0
1.241098446E1,-7.779925078E-1,-1.623878206E0,2.834613204E-1,1.822800892E0
1.242106546E1,-8.805199260E-1,-2.312733420E0,5.680242562E-1,2.539035794E0
1.243114646E1,-9.145898974E-1,-2.908444242E0,7.813856471E-1,3.147393544E0
1.244122746E1,-8.219325793E-1,-3.323263847E0,8.717517337E-1,3.532648701E0
1.245130846E1,-5.673489028E-1,-3.569333977E0,1.075569299E0,3.770792905E0
1.246138846E1,-1.621584928E-1,-3.754745092E0,1.411516104E0,4.014571434E0
1.247146946E1,3.534232557E-1,-3.986712908E0,1.766023141E0,4.374657192E0
1.248155046E1,9.541223377E-1,-4.241970184E0,2.068172163E0,4.814768590E0
1.249163146E1,1.653739936E0,-4.266553048E0,2.143218545E0,5.052891887E0
1.250171146E1,2.271603520E0,-4.006940766E0,2.284760340E0,5.141584062E0
1.251179246E1,2.614585987E0,-3.527239287E0,2.661992288E0,5.134557412E0
1.252187346E1,2.953874184E0,-2.757237584E0,3.012518249E0,5.040138687E0
1.253195446E1,3.126941242E0,-2.015721762E0,3.353382854E0,5.008599836E0
1.254203546E1,3.008776615E0,-1.577180003E0,3.394407212E0,4.802315463E0
1.255211546E1,2.728145932E0,-1.347642290E0,3.200330815E0,4.415997882E0
1.256219646E1,2.157919030E0,-1.160233181E0,3.014182074E0,3.884333810E0
1.257227746E1,1.433546951E0,-7.668991703E-1,2.522924742E0,3.001389754E0
1.258235846E1,7.424186325E-1,-8.171308458E-2,2.230354337E0,2.352093307E0
1.259243946E1,-8.374469966E-2,6.610715836E-1,2.453330889E0,2.542215818E0
1.260251946E1,-1.373561243E0,1.057681789E0,2.713092275E0,3.219663173E0
1.261260046E1,-2.569234983E0,1.369054209E0,2.348463416E0,3.740395465E0
1.262268146E1,-3.178896969E0,3.605945733E0,1.349213437E0,4.992855643E0
1.263276246E1,-2.713659163E0,8.409651493E0,8.000710094E-1,8.872784112E0
1.264284346E1,-1.397131661E0,1.204073967E1,3.302488397E0,1.256335219E1
1.265292312E1,-1.268122496E0,1.073910386E1,6.206915894E0,1.246845184E1
1.266300413E1,-2.069046614E0,3.355960307E0,5.446427611E0,6.723614891E0
1.267308512E1,-1.974823704E0,-3.491065487E0,5.912458885E-1,4.054261782E0
1.268316613E1,-3.173954610E0,-6.064546718E0,-4.645713408E0,8.272567185E0
1.269324712E1,-3.526520372E0,-5.646949101E0,-5.014925900E0,8.335098192E0
1.270332712E1,-1.187992253E0,-4.009728718E0,-2.185500346E0,4.718650416E0
1.271340812E1,1.568196926E0,-2.245026755E0,-2.204499704E0,3.515566195E0
1.272348912E1,2.723328703E0,-8.239446062E-1,-5.457471247E0,6.154623982E0
1.273357012E1,2.361158890E0,1.666885647E0,-8.257967117E0,8.749148529E0
1.274365012E1,1.538691875E0,8.052000116E0,-6.370979995E0,1.038227647E1
1.275373113E1,1.072828417E0,1.272887158E1,1.499429284E0,1.286170365E1
1.276381212E1,1.529162960E0,8.262967656E0,4.451438206E0,9.509483474E0
1.277389313E1,1.312167817E0,1.926303216E0,-1.299773182E0,2.668677348E0
1.278397412E1,2.014628917E-1,4.782063460E-1,-5.497189629E0,5.521626791E0
1.279405412E1,-7.187455952E-1,2.734994191E-1,-5.749256079E0,5.800460553E0
1.280413512E1,-1.324756873E0,-3.569959044E-2,-3.846610113E0,4.068496601E0
1.281421612E1,-1.803293002E0,-4.014359128E-1,-8.433538538E-1,2.030827951E0
1.282429712E1,-2.042761626E0,-3.860840482E-1,-3.059839180E-1,2.101323894E0
1.283437813E1,-2.260216067E0,-6.826595038E-1,-1.948627301E0,3.061331251E0
1.284445813E1,-2.743729931E0,-9.057869142E-1,-3.546396520E0,4.574432439E0
1.285453912E1,-3.196510829E0,-1.051993618E0,-4.210191736E0,5.389813217E0
1.286462013E1,-3.550403032E0,-1.052667802E0,-4.157416522E0,5.567547335E0
1.287470112E1,-3.677450749E0,-5.857916057E-1,-4.040288606E0,5.494608979E0
1.288478213E1,-3.572746412E0,-2.813580769E-1,-4.060938925E0,5.416170626E0
1.289486212E1,-3.391592655E0,-3.754035240E-1,-4.122694586E0,5.351676297E0
1.290494313E1,-2.811964014E0,-3.600814801E-1,-3.503514209E0,4.506818402E0
1.291502412E1,-2.187842156E0,-2.460104889E-1,-2.029017891E0,2.994008694E0
1.292510513E1,-1.585719277E0,1.155246091E-1,-1.443411496E0,2.147391047E0
1.293518612E1,-8.563633239E-1,5.203694487E-1,-2.033245282E0,2.266766173E0
1.294526612E1,-1.838276893E-1,8.193270600E-1,-2.327874200E0,2.474689423E0
1.295534712E1,4.121398258E-1,8.395239276E-1,-1.937943853E0,2.151809945E0
1.296542812E1,1.008799651E0,5.845870793E-1,-1.704047041E0,2.064750616E0
1.297550912E1,1.567129809E0,2.148530155E-1,-1.579978480E0,2.235707864E0
1.298558912E1,1.875612534E0,2.904604375E-2,-1.711645498E0,2.539388974E0
1.299567013E1,1.812559669E0,-1.828202140E-1,-1.685402024E0,2.481808971E0
1.300575112E1,1.393217243E0,-3.443869686E-1,-1.445181448E0,2.036714533E0
1.301583213E1,9.164504814E-1,-2.049384767E-1,-9.169913489E-1,1.312537389E0
1.302591312E1,5.330169761E-1,2.231180549E-2,-2.036123464E-1,5.710191775E-1
1.303599312E1,3.011263436E-1,5.039949059E-1,1.201281128E-1,5.992651363E-1
1.304607412E1,1.994403398E-1,1.023379099E0,2.532470030E-1,1.072947004E0
1.305615512E1,1.941597193E-1,1.372650247E0,6.484784353E-1,1.530487170E0
1.306623612E1,3.709239721E-1,1.536490983E0,9.174491858E-1,1.827594633E0
1.307631713E1,6.261637062E-1,1.200452669E0,8.121759152E-1,1.578859498E0
1.308639713E1,1.059474546E0,4.793319350E-1,5.621630073E-1,1.291616299E0
1.309647812E1,1.336210983E0,8.595874786E-2,4.556653297E-1,1.414383113E0
1.310655913E1,1.863249766E0,-2.762446868E-1,6.971506584E-1,2.008489447E0
1.311664012E1,2.394707875E0,-9.819047982E-1,8.840288401E-1,2.735008195E0
1.312672113E1,2.494147963E0,-1.353764910E0,1.022690881E0,3.016512909E0
1.313680112E1,2.362097953E0,-1.375570931E0,1.063897380E0,2.933185940E0
1.314688213E1,2.118822207E0,-1.190233490E0,8.220379023E-1,2.565503775E0
1.315696312E1,1.788180873E0,-1.022466933E0,6.355151582E-1,2.155669033E0
1.316704413E1,1.285874643E0,-8.828149581E-1,6.655639994E-1,1.695821714E0
1.317712413E1,8.119788641E-1,-8.141288853E-1,6.611880163E-1,1.326380455E0
1.318720512E1,4.714484265E-1,-8.100124454E-1,6.134688894E-1,1.120146356E0
1.319728612E1,3.441524953E-1,-9.925215876E-1,4.702155411E-1,1.150931230E0
1.320736712E1,1.835522854E-1,-9.940670067E-1,5.332870444E-1,1.142915451E0
1.321744812E1,1.082904339E-2,-6.699786472E-1,6.271034268E-1,9.177403575E-1
1.322752812E1,-3.078000632E-1,-6.857906878E-1,6.054523567E-1,9.652058343E-1
1.323760913E1,-6.851776072E-1,-7.955540353E-1,6.051939098E-1,1.211872207E0
1.324769012E1,-9.988912520E-1,-8.069373947E-1,8.130705392E-1,1.519873480E0
1.325777113E1,-1.293400009E0,-9.794811273E-1,9.111973429E-1,1.860792159E0
1.326785212E1,-1.370713941E0,-1.160451867E0,1.235936497E0,2.180147763E0
1.327793212E1,-1.086401266E0,-1.262782819E0,1.037753163E0,1.962605356E0
1.328801312E1,-2.958723280E-1,-1.195435174E0,4.382932520E-1,1.307175070E0
1.329809412E1,8.380776188E-1,-1.181162705E0,-2.097198911E-1,1.463387120E0
1.330817512E1,2.046861109E0,-8.340754920E-1,-1.146179544E0,2.489789122E0
1.331825612E1,2.937194417E0,3.027068460E-1,-2.411371855E0,3.812277101E0
1.332833613E1,3.177517903E0,1.673272560E0,-3.126261796E0,4.761299602E0
1.333841712E1,2.616021479E0,2.511525303E0,-3.739656937E0,5.209257311E0
1.334849813E1,2.165817448E0,2.959937747E0,-4.719826866E0,5.977354125E0
1.335857912E1,2.143339290E0,1.815120165E0,-4.856855196E0,5.610490791E0
1.336865913E1,2.422037761E0,1.348613513E0,-4.062438444E0,4.918173587E0
1.337874012E1,2.515689982E0,-1.384486181E-1,-3.245023423E0,4.108289319E0
1.338882113E1,2.806300109E0,-1.162853318E0,-2.138366525E0,3.714856597E0
1.339890212E1,3.235617592E0,-1.776263078E0,-9.604788458E-1,3.814033474E0
1.340898313E1,3.724718178E0,-1.970168443E0,1.735862911E-2,4.213714576E0
1.341906313E1,3.818782629E0,-9.658144301E-1,1.048181818E0,4.076099042E0
1.342914412E1,3.289007641E0,1.141610384E-2,3.674231710E-1,3.309486573E0
1.343922513E1,2.755724909E0,3.315850747E-1,-1.014840483E0,2.955312106E0
1.344930612E1,2.821544677E0,7.763669819E-1,-7.753694469E-1,3.027384652E0
1.345938712E1,3.508270919E0,1.096616644E0,4.117422152E-1,3.698657129E0
1.346946712E1,4.323235956E0,1.657842928E0,7.387797640E-1,4.688774664E0
1.347954813E1,4.866586717E0,1.524635754E0,-4.821543860E-1,5.122563158E0
1.348962912E1,4.897438381E0,1.050953398E0,-1.867302471E0,5.345673415E0
1.349971013E1,4.475935701E0,6.569826257E-1,-2.760144527E0,5.299436232E0
1.350979112E1,4.078922037E0,7.972351098E-1,-3.135705634E0,5.206326788E0
1.351987112E1,3.982620442E0,1.461138500E0,-2.921993995E0,5.151139700E0
1.352995212E1,4.134270026E0,1.901157265E0,-2.669321481E0,5.275591414E0
1.354003312E1,4.091902271E0,2.133456033E0,-2.436396183E0,5.218364227E0
1.355011412E1,3.954808453E0,1.887729135E0,-2.005969775E0,4.819537937E0
1.356019412E1,3.873997886E0,7.778504205E-1,-7.946371919E-1,4.030429154E0
1.357027513E1,3.325406851E0,-9.760271770E-1,-7.048347768E-1,3.536630012E0
1.358035612E1,2.468180771E0,-2.435181717E0,-1.789163205E0,3.901683135E0
1.359043713E1,1.670107755E0,-3.510197577E0,-2.543890226E0,4.645656512E0
1.360051812E1,1.334220884E0,-4.695763820E0,-3.186450695E0,5.829563556E0
1.361059813E1,1.269956183E0,-5.612287976E0,-3.044751610E0,6.510075068E0
1.362067912E1,1.519255146E0,-5.817693645E0,-2.361151289E0,6.459777934E0
1.363076013E1,2.091356665E0,-5.360563003E0,-1.862717670E0,6.048067917E0
1.364084112E1,2.841904390E0,-4.254159290E0,-1.983584880E0,5.487157807E0
1.365092263E1,3.686496976E0,-2.774758181E0,-2.241851717E0,5.129857897E0
1.366100262E1,4.341234563E0,-1.103743815E0,-1.831537392E0,4.839328173E0
1.367108362E1,4.468078505E0,3.485536945E-1,-1.870810801E0,4.856454288E0
1.368116462E1,4.122181493E0,1.402030166E0,-2.727638394E0,5.137906193E0
1.369124562E1,3.191590982E0,1.957206920E0,-3.384163182E0,5.046728878E0
1.370132662E1,1.945486177E0,2.520047035E0,-3.591327109E0,4.799289940E0
1.371140662E1,6.895884544E-1,3.012184373E0,-3.510965901E0,4.677143197E0
1.372148763E1,-5.864523411E-1,3.299542862E0,-3.392141708E0,4.768389122E0
1.373156862E1,-1.909285480E0,3.197543448E0,-3.146306051E0,4.875335569E0
1.374164963E1,-2.733446433E0,2.594410754E0,-2.929887736E0,4.773566665E0
1.375172962E1,-3.285142339E0,1.878459544E0,-2.665462611E0,4.628764563E0
1.376181063E1,-3.668225597E0,1.413605899E0,-2.542046599E0,4.681470023E0
1.377189162E1,-3.755157321E0,1.095406855E0,-2.375534270E0,4.576492735E0
1.378197263E1,-3.644892575E0,5.959786248E-1,-2.188898163E0,4.293216460E0
1.379205362E1,-3.486917180E0,-1.398303151E-2,-1.942628058E0,3.991564946E0
1.380213362E1,-3.408917370E0,-7.149144995E-1,-1.836143829E0,3.937415972E0
1.381221463E1,-3.281877547E0,-1.428608100E0,-1.884938259E0,4.045322431E0
1.382229562E1,-3.018428907E0,-2.009132534E0,-1.907993245E0,4.097311903E0
1.383237663E1,-2.546037032E0,-2.592173610E0,-1.600737265E0,3.970393983E0
1.384245762E1,-2.065159385E0,-3.340072837E0,-1.428357255E0,4.178656996E0
1.385253763E1,-1.659056810E0,-4.170068727E0,-1.468110720E0,4.722000823E0
1.386261862E1,-1.341698595E0,-4.963855149E0,-8.845995283E-1,5.217521384E0
1.387269963E1,-1.164483230E0,-5.828432642E0,1.880441165E-1,5.946596408E0
1.388278062E1,-8.704510206E-1,-6.775652341E0,8.513651240E-1,6.884182755E0
1.389286062E1,-3.248391420E-1,-7.558517334E0,1.464654431E0,7.705966348E0
1.390294162E1,4.526990372E-1,-8.508968205E0,1.830836603E0,8.715471244E0
1.391302262E1,1.400470714E0,-9.420660807E0,1.148218322E0,9.593152432E0
1.392310362E1,2.031823824E0,-9.032172384E0,8.099083650E-1,9.293244728E0
1.393318462E1,2.271675148E0,-6.845401438E0,9.342266017E-1,7.272744198E0
1.394326463E1,3.303426583E0,-1.474633874E0,1.549959460E0,3.935676127E0
1.395334562E1,6.590690292E0,9.292137253E0,7.037193035E0,1.339041071E1
1.396342663E1,1.483643965E1,2.162081429E1,1.352894025E1,2.950613116E1
1.397350762E1,2.434589043E1,2.394874053E1,1.082209573E1,3.582432567E1
1.398358863E1,2.150066804E1,8.329867405E0,-5.809270731E0,2.377841549E1
1.399366862E1,4.918891815E0,-2.458985732E0,-1.306459064E1,1.417482402E1
1.400374963E1,-8.335241581E0,-4.693869907E-1,-1.041192641E1,1.334559058E1
1.401383062E1,-1.813037036E1,1.502826809E0,5.350563095E0,1.896305205E1
1.402391163E1,-1.867914792E1,-4.563050151E-2,7.571453714E0,2.015538540E1
1.403399163E1,-1.185976484E1,-2.774128436E0,-1.027149968E0,1.222312757E1
1.404407262E1,-7.874092147E0,-2.140419483E0,-4.983107107E0,9.561071025E0
1.405415363E1,-6.757656366E0,9.824199378E-1,-5.773212122E0,8.942094089E0
1.406423462E1,-5.381031182E0,5.635196782E0,-3.705795711E0,8.628085605E0
1.407431563E1,-4.222425573E0,9.279875057E0,-2.632020923E0,1.052960080E1
1.408439562E1,-3.525033717E0,1.164495217E1,-2.735778303E0,1.247057563E1
1.409447663E1,-2.647837056E0,1.302220183E1,-3.591288518E0,1.376539628E1
1.410455762E1,-1.153454504E0,1.296441146E1,-3.128142845E0,1.338625039E1
1.411463863E1,1.201534989E0,8.554230332E0,2.314269483E-1,8.641302062E0
1.412471962E1,1.697863903E0,2.620751876E0,3.041114934E0,4.358837261E0
1.413479962E1,8.970502970E-1,-4.751505911E-1,2.380513174E0,2.587916206E0
1.414488062E1,-1.239963475E-1,-1.731587427E0,-4.015122190E-1,1.781847966E0
1.415496162E1,-7.339518642E-1,-2.608769177E0,-2.828960116E0,3.917572883E0
1.416504262E1,-8.343239987E-1,-2.799098970E0,-4.296527922E0,5.195305936E0
1.417512262E1,-5.081861901E-1,-2.716899397E0,-4.769279108E0,5.512333331E0
1.418520363E1,-1.184096253E-1,-2.356202790E0,-4.252348699E0,4.862939634E0
1.419528462E1,5.088381547E-1,-1.939920212E0,-3.066576342E0,3.664163910E0
1.420536563E1,1.217895498E0,-1.356082746E0,-1.282467032E0,2.228665867E0
1.421544662E1,1.635062468E0,-5.282877481E-1,1.188493359E-1,1.722394375E0
1.422552662E1,1.186938877E0,4.690642244E-1,3.029179305E-1,1.311718116E0
1.423560762E1,5.110820237E-1,8.198878080E-1,-3.776425691E-1,1.037320954E0
1.424568863E1,1.381445628E-1,9.785198450E-2,-6.233775079E-1,6.459554540E-1
1.425576962E1,-1.958279300E-1,-1.028400688E0,-3.122079867E-1,1.092442392E0
1.426585063E1,-5.069831255E-1,-2.028696148E0,-1.282756323E-1,2.095016609E0
1.427593063E1,-7.013556835E-1,-2.794050484E0,-2.862651334E-1,2.894920660E0
1.428601162E1,-5.954169998E-1,-3.216484918E0,-1.476487003E-1,3.274461295E0
1.429609263E1,-2.414958537E-2,-3.159924216E0,7.360668021E-1,3.244610700E0
1.430617362E1,8.937650388E-1,-2.888468984E0,1.233085980E0,3.265359099E0
1.431625363E1,1.952941669E0,-2.821026029E0,9.696888683E-1,3.565454462E0
1.432633462E1,2.782885811E0,-3.257701356E0,9.842828608E-1,4.396121508E0
1.433641563E1,3.470597309E0,-3.452263364E0,1.364277034E0,5.081773297E0
1.434649662E1,3.753161959E0,-3.130007522E0,1.435676215E0,5.093558478E0
1.435657763E1,3.584802786E0,-2.987728393E0,1.729153231E0,4.976675885E0
1.436665762E1,3.313845152E0,-2.871210927E0,1.800186376E0,4.739841017E0
1.437673862E1,3.101883000E0,-2.657119803E0,1.600572374E0,4.386775093E0
1.438681962E1,3.047436066E0,-2.593629566E0,1.548281894E0,4.290799195E0
1.439690062E1,3.171877972E0,-2.520791386E0,1.409937941E0,4.289886254E0
1.440698162E1,3.249911696E0,-2.290127499E0,1.610958198E0,4.289731496E0
1.441706162E1,3.318761198E0,-2.002702351E0,2.178762599E0,4.446571608E0
1.442714263E1,3.348769109E0,-1.858072057E0,2.327002380E0,4.481252770E0
1.443722362E1,3.163712627E0,-1.599475436E0,2.776358856E0,4.502839966E0
1.444730463E1,2.728743225E0,-2.137112297E0,3.128569107E0,4.669179073E0
1.445738462E1,2.238626685E0,-1.611761606E0,2.819133285E0,3.944203011E0
1.446746562E1,1.940256427E0,-1.414139165E0,2.585631745E0,3.528438196E0
1.447754662E1,1.514777933E0,-1.651399881E0,2.308709950E0,3.217423719E0
1.448762762E1,7.149539682E-1,-1.785654876E0,2.182944674E0,2.909462143E0
1.449770862E1,-9.834519714E-2,-1.304455340E0,1.784036951E0,2.212253004E0
1.450778862E1,-5.361209705E-1,1.949327213E-1,1.068150644E0,1.210937760E0
1.451786963E1,-8.550333747E-1,1.814940655E0,-2.702596231E-1,2.024384331E0
1.452795062E1,-8.566448674E-1,3.229890245E0,-2.173479201E0,3.986231712E0
1.453803163E1,-3.442314327E-2,4.904677234E0,-3.695193540E0,6.140968899E0
1.454811262E1,1.142940626E0,5.752083793E0,-4.666416060E0,7.494546022E0
1.455819263E1,1.905417547E0,4.293312246E0,-3.916879027E0,6.115969864E0
1.456827362E1,2.520181521E0,4.913115351E0,-1.693041412E0,5.775500547E0
1.457835463E1,1.354111357E0,5.668287345E0,6.053762698E-1,5.859144940E0
1.458843562E1,-1.045243008E0,6.033702655E0,2.084851638E0,6.468748490E0
1.459851562E1,-3.095837856E0,6.350537544E0,1.474917464E0,7.217265455E0
1.460859663E1,-4.409561325E0,6.592066727E0,3.243935476E-1,7.937556676E0
1.461867762E1,-4.379119551E0,6.419132985E0,2.804231071E-1,7.775641030E0
1.462875862E1,-2.709783336E0,5.923258692E0,1.888527864E-1,6.516408876E0
1.463883962E1,-4.900060272E-1,4.495857457E0,-6.322459799E-1,4.566461996E0
1.464891958E1,1.141959463E0,2.811216155E0,-1.279018782E0,3.292855407E0
1.465900058E1,2.157755308E0,1.432205892E0,-1.194646238E0,2.852069655E0
1.466908158E1,2.594846372E0,9.489621699E-2,-1.083718271E0,2.813659233E0
1.467916258E1,2.453199912E0,-7.386822617E-1,-8.879384346E-1,2.711508059E0
1.468924258E1,2.088090411E0,-1.168194750E0,-7.015506881E-1,2.493386032E0
1.469932358E1,1.666179888E0,-1.481106157E0,-8.417938167E-1,2.382949369E0
1.470940458E1,1.244276381E0,-1.610775765E0,-1.499297429E0,2.527986365E0
1.471948558E1,6.691758245E-1,-1.199080328E0,-1.936799553E0,2.374190899E0
1.472956658E1,4.353836775E-2,-8.919138104E-1,-2.239280112E0,2.410763625E0
1.473964658E1,-5.460963205E-1,-6.832588434E-1,-2.227139830E0,2.392742289E0
1.474972758E1,-1.254865981E0,-5.896121764E-1,-1.785077171E0,2.260272473E0
1.475980858E1,-1.814100118E0,-6.987791079E-1,-1.620909282E0,2.531125912E0
1.476988958E1,-2.029756541E0,-9.083088183E-1,-1.898007078E0,2.923588102E0
1.477996958E1,-2.126616253E0,-1.124047687E0,-2.176480723E0,3.243924819E0
1.479005058E1,-1.995181955E0,-1.249192720E0,-2.651104480E0,3.545361540E0
1.480013158E1,-1.865872827E0,-1.244521379E0,-2.943344518E0,3.700485350E0
1.481021258E1,-2.048811740E0,-1.046222416E0,-2.487765435E0,3.388390141E0
1.482029358E1,-2.296370864E0,-9.400264549E-1,-2.104105057E0,3.253340894E0
1.483037358E1,-2.549876606E0,-9.378501213E-1,-1.979687710E0,3.361636058E0
1.484045458E1,-2.840622680E0,-9.777942055E-1,-1.643890886E0,3.424557776E0
1.485053558E1,-3.158239926E0,-9.314298785E-1,-1.455155629E0,3.599933187E0
1.486061658E1,-3.413563860E0,-8.717491025E-1,-1.448685100E0,3.809337638E0
1.487069658E1,-3.541090171E0,-8.164519840E-1,-1.417769701E0,3.900767152E0
1.488077758E1,-3.632043903E0,-8.012474692E-1,-1.050548771E0,3.864892384E0
1.489085858E1,-3.646694394E0,-9.992733675E-1,-2.136572599E-1,3.787159449E0
1.490093958E1,-3.445694894E0,-1.376952628E0,4.739817327E-1,3.740784748E0
1.491102058E1,-3.184471412E0,-1.478237513E0,1.404887116E-1,3.513656414E0
1.492110058E1,-2.918354395E0,-9.487616104E-1,-5.149034715E-1,3.111601927E0
1.493118158E1,-2.576571484E0,-1.367137492E-1,-4.808969423E-1,2.624628189E0
1.494126258E1,-2.216475971E0,5.870493418E-1,2.671876422E-1,2.308415451E0
1.495134358E1,-2.068371845E0,1.309724266E0,1.301247850E0,2.772505313E0
1.496142458E1,-1.944841229E0,2.084375675E0,2.283301460E0,3.652464225E0
1.497150458E1,-1.653434127E0,2.766672651E0,3.167300771E0,4.518862262E0
1.498158558E1,-1.302326661E0,2.916291790E0,3.698821445E0,4.886930797E0
1.499166658E1,-1.310961537E0,2.350956084E0,3.867465084E0,4.711995420E0
1.500174758E1,-1.858014754E0,1.520685959E0,3.754001327E0,4.456145259E0
1.501182758E1,-2.751980645E0,7.645368952E-1,3.429502493E0,4.463115670E0
1.502190858E1,-3.413011006E0,6.719386339E-2,2.699876691E0,4.352297472E0
1.503198958E1,-3.619546649E0,-4.982669735E-1,1.812817531E0,4.078687941E0
1.504207058E1,-3.503544615E0,-7.952125579E-1,1.430767477E0,3.867076862E0
1.505215158E1,-3.169991367E0,-7.838812387E-1,1.518460217E0,3.601254850E0
1.506223158E1,-2.654973291E0,-6.977038050E-1,1.533586087E0,3.144449087E0
1.507231258E1,-2.291061299E0,-6.161696452E-1,1.802583734E0,2.979586386E0
1.508239358E1,-2.356328798E0,-1.620438874E-1,2.532412435E0,3.462897105E0
1.509247458E1,-2.529616588E0,1.084294807E0,2.483208992E0,3.706883085E0
1.510255458E1,-2.154579392E0,2.881099153E0,7.464567196E-1,3.674253982E0
1.511263558E1,-7.605546489E-1,4.869763509E0,-1.079688370E-1,4.929979440E0
1.512271658E1,-1.308568856E-1,6.338254883E0,1.277541483E0,6.467048069E0
1.513279758E1,-6.854638284E-1,6.402752010E0,2.219923197E0,6.811251938E0
1.514287858E1,-1.111200185E0,5.381993634E0,3.603038205E0,6.571339713E0
1.515295858E1,-5.562269139E-1,9.759418076E-1,2.696883793E0,2.921477877E0
1.516303958E1,-5.738398969E-2,-3.498810124E0,-1.392702980E0,3.766243062E0
1.517312058E1,-4.769693676E-1,-4.307589392E0,-1.979184850E0,4.764451576E0
1.518320158E1,4.433855921E-2,-3.144310981E0,-1.241531698E0,3.380836939E0
1.519328158E1,1.397757021E0,-2.227039551E0,-1.352915309E0,2.956993352E0
1.520336258E1,2.521234605E0,-1.855596346E0,-2.967232148E0,4.313273507E0
1.521344358E1,2.959240758E0,-9.114698231E-2,-4.459444506E0,5.352761805E0
1.522352458E1,2.982032328E0,3.704584168E0,-4.032464447E0,6.235160798E0
1.523360558E1,3.533583224E0,6.097147284E0,-2.204926258E0,7.383976923E0
1.524368558E1,4.189954230E0,4.341298006E0,-1.668948837E0,6.260029956E0
1.525376658E1,4.136482613E0,1.165052456E0,-2.414000470E0,4.929019568E0
1.526384758E1,3.030482357E0,-4.056301206E-1,-3.225001680E0,4.443984130E0
1.527392858E1,1.593872634E0,-3.354033065E-1,-3.964417767E0,4.285969387E0
1.528400858E1,2.097416720E-1,2.874654937E-1,-4.476757235E0,4.490877789E0
1.529408958E1,-1.363794639E0,7.592159289E-1,-4.379974414E0,4.649787146E0
1.530417058E1,-2.731371841E0,6.698155099E-1,-3.287404920E0,4.326208046E0
1.531425158E1,-3.951124415E0,3.502493870E-1,-1.742322622E0,4.332406594E0
1.532433258E1,-4.969214707E0,6.189757240E-1,-6.004583229E-1,5.043488470E0
1.533441258E1,-5.703226798E0,6.216087252E-1,9.718993351E-2,5.737825302E0
1.534449358E1,-5.802019599E0,5.507346243E-1,-1.968427143E-1,5.831422392E0
1.535457458E1,-5.328162997E0,5.229808152E-1,-1.752914561E0,5.633430510E0
1.536465558E1,-4.553427388E0,4.207019037E-1,-3.461610723E0,5.735280278E0
1.537473558E1,-3.467349765E0,1.432760793E-1,-4.259636377E0,5.494319293E0
1.538481658E1,-2.000537712E0,-1.433620334E-1,-3.797781184E0,4.294862714E0
1.539489758E1,-5.965955061E-1,-6.563616514E-1,-2.997034822E0,3.125532680E0
1.540497858E1,5.128329724E-1,-8.035384083E-1,-3.311619117E0,3.446083691E0
1.541505958E1,1.071136817E0,-1.155591661E0,-3.576994999E0,3.908659539E0
1.542513958E1,1.158524040E0,-1.470627362E0,-3.081348748E0,3.605500366E0
1.543522058E1,1.285642508E0,-1.524611780E0,-2.483784358E0,3.185357511E0
1.544530158E1,1.539536798E0,-1.479525654E0,-1.901591129E0,2.859233907E0
1.545538258E1,1.620559326E0,-6.169239360E-1,-1.583579196E0,2.348303801E0
1.546546258E1,1.854060282E0,-2.654635906E-3,-1.487616447E0,2.377088402E0
1.547554358E1,1.948764126E0,5.452990526E-1,-1.272155321E0,2.390274427E0
1.548562458E1,1.867901226E0,1.000895385E0,-9.480599445E-1,2.321565037E0
1.549570558E1,1.807476684E0,1.086083470E0,-3.166822761E-1,2.132331337E0
1.550578658E1,1.623061350E0,7.065763700E-1,4.479668856E-1,1.825993604E0
1.551586658E1,1.334209481E0,3.239527041E-1,5.820470488E-1,1.491254191E0
1.552594758E1,9.517670792E-1,-1.267109174E-1,8.011632693E-1,1.250511421E0
1.553602858E1,6.063866687E-1,-6.771333003E-1,1.035829575E0,1.378099128E0
1.554610958E1,4.849628037E-1,-9.512846839E-1,1.444739399E0,1.796497537E0
1.555618958E1,6.525428349E-1,-8.944199270E-1,1.511478349E0,1.873597064E0
1.556627058E1,1.069565963E0,-9.401545089E-1,1.299531984E0,1.927860272E0
1.557635158E1,1.712276412E0,-1.046065126E0,1.106159885E0,2.291229463E0
1.558643258E1,2.448790819E0,-1.410919104E0,8.501033679E-1,2.951261582E0
1.559651358E1,3.404113882E0,-1.710912842E0,9.575259288E-1,3.928367343E0
1.560659358E1,4.096487073E0,-2.246083347E0,1.159789377E0,4.813648112E0
1.561667458E1,4.244897885E0,-2.549742120E0,1.676394389E0,5.227871563E0
1.562675558E1,4.132435755E0,-2.696957468E0,2.129368830E0,5.374459644E0
1.563683658E1,3.947510836E0,-2.836256272E0,2.344054030E0,5.396460018E0
1.564691658E1,4.030092232E0,-3.064949647E0,2.759359539E0,5.766248763E0
1.565699783E1,4.207378933E0,-2.846615784E0,2.421101475E0,5.627343179E0
1.566707883E1,4.169215911E0,-2.417084584E0,1.977210099E0,5.209032441E0
1.567715983E1,3.598019248E0,-2.015062196E0,1.752169626E0,4.480660281E0
1.568724083E1,2.659045876E0,-1.350978127E0,1.834491259E0,3.501574653E0
1.569732083E1,1.572775295E0,-6.818753922E-1,2.047887880E0,2.670659272E0
1.570740183E1,5.932842278E-1,1.924739671E-1,2.173544544E0,2.261266965E0
1.571748283E1,-4.615265787E-2,4.548180681E-1,2.048550954E0,2.098940341E0
1.572756383E1,-3.552066565E-1,2.985874826E-1,1.433108118E0,1.506361554E0
1.573764383E1,-2.425384122E-1,-1.594231653E-1,9.353089213E-2,3.049404119E-1
1.574772483E1,1.056012994E0,7.495931661E-1,-1.830925773E0,2.242619572E0
1.575780583E1,2.484615247E0,1.478027013E0,-3.576463487E0,4.598800697E0
1.576788683E1,3.290386415E0,1.987216585E0,-5.034037524E0,6.333814515E0
1.577796683E1,3.115118172E0,1.720951926E0,-5.470904056E0,6.526593901E0
1.578804783E1,2.263514774E0,1.278942184E0,-5.507208248E0,6.090035709E0
1.579812883E1,2.471324526E0,1.454849235E0,-4.948320851E0,5.719257859E0
1.580820983E1,3.315387647E0,2.203790436E0,-3.033412689E0,5.005005502E0
1.581829083E1,3.964040329E0,2.578458381E0,-1.818612707E-1,4.732350037E0
1.582837083E1,3.900559448E0,7.911475736E-1,1.144086680E0,4.141160806E0
1.583845183E1,3.280606362E0,-7.175656271E-1,4.682578933E-1,3.390655392E0
1.584853283E1,1.245842265E0,6.682046020E-1,-2.224216515E-1,1.431115555E0
1.585861383E1,-4.562947825E-1,2.256235868E0,-1.170214232E0,2.582287081E0
1.586869383E1,-5.808837453E-1,3.006770436E0,-1.533587256E0,3.424906459E0
1.587877483E1,4.865684491E-1,2.966365006E0,-9.791022277E-1,3.161441345E0
1.588885583E1,2.003512191E0,2.165932054E0,3.366961259E-1,2.969627425E0
1.589893683E1,3.565880904E0,1.173114597E0,6.369208288E-1,3.807541546E0
1.590901783E1,4.853739507E0,-5.791608632E-2,-9.372548747E-1,4.943742325E0
1.591909783E1,5.265315369E0,-9.675492990E-1,-2.608769177E0,5.955281202E0
1.592917883E1,4.918435147E0,-9.197038722E-1,-3.711792616E0,6.230109464E0
1.593925983E1,4.237268438E0,-5.949419135E-1,-3.814798044E0,5.732458793E0
1.594934083E1,3.225627332E0,-6.338861239E-1,-2.848643013E0,4.349856356E0
1.595942083E1,1.974365575E0,-1.153246928E0,-2.043266240E0,3.066436829E0
1.596950183E1,3.855007884E-1,-2.092239595E0,-1.807571994E0,2.791665076E0
1.597958283E1,-8.487777311E-1,-2.804921628E0,-2.189256012E0,3.657984535E0
1.598966383E1,-1.327976350E0,-2.971639779E0,-2.588396893E0,4.158601043E0
1.599974483E1,-1.404673108E0,-3.030316004E0,-2.627552480E0,4.249700420E0
1.600982483E1,-6.599027252E-1,-3.338154951E0,-3.202149884E0,4.672527577E0
1.601990583E1,5.619174242E-2,-3.529197519E0,-2.917397498E0,4.579257670E0
1.602998683E1,9.411637384E-1,-3.908222224E0,-2.279591694E0,4.621312414E0
1.604006783E1,1.990395716E0,-4.120204257E0,-1.997658543E0,4.992834654E0
1.605014783E1,2.540004752E0,-3.422106349E0,-1.510278793E0,4.521435396E0
1.606022883E1,2.676018589E0,-1.487127035E0,-1.852247645E0,3.578189996E0
1.607030983E1,2.654573926E0,7.745379728E-1,-2.970030333E0,4.058047804E0
1.608039083E1,2.466172544E0,2.422263463E0,-3.703716441E0,5.066249380E0
1.609047183E1,1.994853634E0,3.479434206E0,-4.046548343E0,5.697407911E0
1.610055183E1,1.167025599E0,4.176403601E0,-4.232274038E0,6.059409156E0
1.611063283E1,7.669968188E-2,4.575866078E0,-3.848783815E0,5.979763378E0
1.612071383E1,-1.026410003E0,4.733561976E0,-3.405810744E0,5.921120950E0
1.613079483E1,-2.120308569E0,4.741472674E0,-2.647194155E0,5.829657661E0
1.614087483E1,-3.118528853E0,4.377250196E0,-1.750190343E0,5.652318792E0
1.615095583E1,-3.704378346E0,3.619102553E0,-1.304673441E0,5.340645561E0
1.616103683E1,-3.790512803E0,2.457529190E0,-1.152127771E0,4.662063430E0
1.617111783E1,-3.725719806E0,1.243231484E0,-8.367108321E-1,4.015805973E0
1.618119783E1,-3.729398874E0,-1.295859933E-2,-2.733953387E-1,3.739428954E0
1.619127883E1,-3.632713409E0,-1.031595606E0,1.512089968E-3,3.776347242E0
1.620135983E1,-3.399059257E0,-1.765713531E0,3.250724459E-1,3.844088995E0
1.621144083E1,-3.036100069E0,-2.376962160E0,8.402881587E-1,3.946382765E0
1.622152183E1,-2.432756876E0,-2.963540801E0,1.307677740E0,4.051037049E0
1.623160183E1,-1.665069794E0,-3.385757718E0,9.896652228E-1,3.900673018E0
1.624168283E1,-9.398399287E-1,-3.541938602E0,1.282849878E-1,3.666754040E0
1.625176383E1,-6.008929172E-1,-3.600585006E0,-5.562690139E-2,3.650805258E0
1.626184483E1,-7.812210479E-1,-4.000856153E0,9.918453571E-1,4.195344265E0
1.627192483E1,-8.494703338E-1,-4.807564337E0,2.291296358E0,5.392987456E0
1.628200583E1,-3.795149937E-1,-5.503827973E0,3.072904783E0,6.314974093E0
1.629208683E1,5.623200050E-1,-5.687971997E0,3.397355086E0,6.649154142E0
1.630216783E1,2.064273240E0,-5.505028406E0,3.480543423E0,6.832330809E0
1.631224883E1,3.565434469E0,-5.053575411E0,3.446679858E0,7.080293033E0
1.632232883E1,4.525266905E0,-3.994897841E0,4.113216249E0,7.304505270E0
1.633240983E1,4.732288160E0,-1.445374991E0,6.567666296E0,8.223010438E0
1.634249083E1,6.212846725E0,2.080903013E0,4.414440826E0,7.900437304E0
1.635257183E1,1.057237869E1,7.742983539E0,-3.797889943E0,1.364378808E1
1.636265183E1,1.502020361E1,1.792155108E1,-4.502624732E0,2.381306656E1
1.637273283E1,1.629875812E1,2.154701073E1,3.741118741E0,2.727488143E1
1.638281383E1,7.716195105E0,4.712133685E0,2.746660556E0,9.449233565E0
1.639289483E1,-6.687482761E0,-8.018671571E0,-6.004306948E0,1.204463455E1
1.640297483E1,-1.326163947E1,-4.557028103E0,-1.328751573E1,1.931827272E1
1.641305583E1,-2.150903657E1,1.306987769E0,1.127622090E0,2.157819276E1
1.642313683E1,-1.872274242E1,-3.236456083E0,1.673629123E1,2.532033128E1
1.643321783E1,-1.023439910E1,-6.596876646E0,4.510633371E0,1.298489583E1
1.644329883E1,-6.511090976E0,-3.621719182E0,-2.907568914E-1,7.456252081E0
1.645337883E1,-3.924599690E0,1.055859212E0,-2.668172795E0,4.861735027E0
1.646345983E1,-1.610501531E0,3.370456139E0,-8.020258505E0,8.847498870E0
1.647354083E1,2.083272305E-1,5.311462179E0,-9.869891860E0,1.121025406E1
1.648362183E1,1.463344654E0,8.172973745E0,-8.988461523E0,1.223647490E1
1.649370183E1,2.549950573E0,1.103353689E1,-8.662592686E0,1.425768902E1
1.650378283E1,3.570777362E0,1.233537268E1,-6.477236767E0,1.438285320E1
1.651386383E1,4.518520095E0,8.513581658E0,1.980853353E0,9.839810796E0
1.652394483E1,4.805424841E0,9.619400650E-1,8.824347721E0,1.009388673E1
1.653402483E1,2.880718792E0,-3.074905116E0,5.748946177E0,7.127689975E0
1.654410583E1,6.688615367E-1,-3.123023023E0,4.395717457E-1,3.223952834E0
1.655418683E1,-9.206876662E-1,-2.387947324E0,-2.658263226E0,3.690030024E0
1.656426783E1,-2.001338781E0,-1.930147176E0,-3.963345973E0,4.841377524E0
1.657434883E1,-2.244952788E0,-1.698375242E0,-4.568610561E0,5.366236478E0
1.658442883E1,-1.837112420E0,-1.945423027E0,-4.509049360E0,5.243203117E0
1.659450983E1,-8.947821620E-1,-2.059934898E0,-3.514083052E0,4.170461197E0
1.660459083E1,2.168580258E-1,-1.816633424E0,-1.980843559E0,2.696465391E0
1.661467183E1,1.145329506E0,-1.229212784E0,-2.122229379E-1,1.693452781E0
1.662475183E1,1.691985404E0,-5.580284411E-1,5.576004249E-1,1.866849909E0
