"Time (s)","Linear Acceleration x (m/s^2)","Linear Acceleration y (m/s^2)","Linear Acceleration z (m/s^2)","Absolute acceleration (m/s^2)"
1.325516668E-2,-5.321258605E-2,1.733465552E-2,1.211964083E-1,1.334939661E-1
2.333616666E-2,-6.245586455E-2,2.607098043E-2,8.834017262E-2,1.112852961E-1
3.341716668E-2,-7.879181564E-2,1.999689281E-2,8.493723929E-2,1.175685356E-1
4.349716668E-2,-6.033274055E-2,2.682234764E-2,9.608027816E-2,1.165800059E-1
5.357816667E-2,-4.599829137E-2,1.478351533E-2,1.024062346E-1,1.132317624E-1
6.365916668E-2,-4.883594513E-2,-7.646403909E-3,7.445084274E-2,8.936635281E-2
7.374016667E-2,-3.811039746E-2,9.322215915E-3,5.977491617E-2,7.150067627E-2
8.382116669E-2,-4.375179112E-2,3.887813687E-2,7.235929370E-2,9.306769653E-2
9.390116666E-2,-4.819099724E-2,7.215698004E-2,7.078990102E-2,1.119830883E-1
1.039821667E-1,-5.772956014E-2,6.429305971E-2,7.786342397E-2,1.163142830E-1
1.140631667E-1,-4.394650340E-2,6.137354493E-2,9.206835732E-2,1.190570855E-1
1.241441667E-1,-6.026491284E-2,5.914107800E-2,8.607613072E-2,1.205762294E-1
1.342251667E-1,-7.316094697E-2,6.898603499E-2,9.157251343E-2,1.360041264E-1
1.443061667E-1,-8.130144060E-2,6.336042881E-2,9.556148395E-2,1.405576942E-1
1.543861667E-1,-9.661003590E-2,2.921736717E-2,1.047503833E-1,1.454640725E-1
1.644671667E-1,-9.858113229E-2,9.440914392E-3,1.077792411E-1,1.463684915E-1
1.745481667E-1,-5.369088829E-2,-1.245515406E-2,1.112386000E-1,1.241445467E-1
1.846291667E-1,-1.035834253E-2,-2.532487571E-2,1.154355852E-1,1.186339704E-1
1.947101667E-1,2.577628076E-2,-5.034277260E-2,1.077764636E-1,1.217151491E-1
2.047901667E-1,3.689534605E-2,-8.904432356E-2,1.182295310E-1,1.525397657E-1
2.148711667E-1,4.812901676E-2,-9.867117941E-2,1.203585023E-1,1.629066388E-1
2.249521667E-1,6.081396639E-2,-1.102703011E-1,1.331791073E-1,1.832881678E-1
2.350331667E-1,7.075189412E-2,-1.273394930E-1,1.318102741E-1,1.964564211E-1
2.451141667E-1,9.256610155E-2,-1.700697756E-1,1.349537373E-1,2.360184800E-1
2.551951667E-1,9.118031144E-2,-2.059061909E-1,1.372364902E-1,2.637139793E-1
2.652751667E-1,1.198281598E-1,-2.325829428E-1,1.548858722E-1,3.040448101E-1
2.753561667E-1,1.657013208E-1,-2.455286783E-1,1.634570132E-1,3.383185699E-1
2.854371667E-1,2.078340179E-1,-2.924163312E-1,1.506640363E-1,3.891040241E-1
2.955181667E-1,1.932124704E-1,-3.605282074E-1,1.740644471E-1,4.445335520E-1
3.055991667E-1,1.707837206E-1,-5.731054866E-1,1.887913907E-1,6.271037930E-1
3.156791667E-1,2.089888430E-1,-6.815456092E-1,3.584869444E-1,7.979308512E-1
3.257601667E-1,1.480655336E-1,-8.974236417E-1,2.021826839E-1,9.317566381E-1
3.358411667E-1,1.131775367E-1,-9.796846104E-1,2.639554475E-1,1.020913105E0
3.459221667E-1,1.762660700E-1,-1.015084239E0,1.410605693E-1,1.039886447E0
3.560031667E-1,1.855303985E-1,-1.264073884E0,2.809360541E-1,1.308139663E0
3.660841667E-1,2.449392790E-1,-1.707345455E0,2.545287126E-1,1.743504694E0
3.761641667E-1,2.768013418E-1,-2.208482827E0,2.542604716E-1,2.240237435E0
3.862451667E-1,1.508236653E-1,-2.707321073E0,5.242888373E-1,2.761741110E0
3.963261667E-1,-1.730927861E-1,-3.177877507E0,5.585334943E-1,3.231226737E0
4.064071667E-1,-1.632899290E-1,-2.651444496E0,5.235743076E-1,2.707573004E0
4.164881667E-1,-1.779395431E-1,-1.955801250E0,4.385095990E-1,2.012240462E0
4.265681667E-1,-4.191558999E-1,-2.031243196E0,2.314007820E-1,2.086908457E0
4.366491667E-1,-4.992481363E-1,-2.124432026E0,-2.168496935E-1,2.193053561E0
4.467301667E-1,-1.254496729E-1,-2.165918021E0,-1.473328775E-1,2.174544888E0
4.568111667E-1,-8.899403751E-2,-8.598856866E-1,-1.036511945E0,1.349696390E0
4.668921667E-1,-7.173720843E-1,3.574601734E-1,1.290503883E-1,8.118217080E-1
4.769721667E-1,-8.535177764E-1,1.140241551E0,6.371959403E-2,1.425729138E0
4.870531667E-1,-4.881989452E-1,6.643553799E-1,-1.179630442E-1,8.328394568E-1
4.971341667E-1,-7.845238477E-2,5.033090276E-1,5.475902840E-2,5.123214861E-1
5.072151667E-1,-7.929654729E-1,1.581180083E0,1.405363664E-2,1.768932503E0
5.172961667E-1,-1.233355829E0,2.856174812E0,3.117050531E-1,3.126669345E0
5.273771667E-1,-6.850472143E-1,4.733097122E0,7.956306338E-1,4.848146673E0
5.374571667E-1,1.881388414E-1,5.033550451E0,1.098954946E0,5.155553156E0
5.475381667E-1,2.391268542E-1,4.599697575E0,9.026038362E-1,4.693516072E0
5.576191667E-1,-2.690435484E-1,3.643248630E0,6.459379663E-1,3.709835693E0
5.677001667E-1,-5.797087473E-1,2.247558600E0,7.679559083E-1,2.444859540E0
5.777811667E-1,-7.604809740E-1,1.422881922E0,8.028197855E-1,1.802066559E0
5.878611667E-1,-8.400425756E-1,5.884994513E-1,1.020265456E0,1.446701329E0
5.979421667E-1,-7.597132346E-1,-1.897760618E-1,9.775094461E-1,1.252479090E0
6.080231667E-1,-8.219416425E-1,-6.833459669E-1,1.794701103E0,2.088899668E0
6.181041667E-1,-1.574127464E0,1.533607721E-1,1.001899352E0,1.872217699E0
6.281851667E-1,-1.024954339E0,-1.169427343E0,-1.943635533E0,2.489138564E0
6.382651667E-1,2.188861325E-1,-2.688935673E0,-1.230507942E0,2.965204207E0
6.483461667E-1,1.324300790E0,-2.020483149E0,-2.900137103E-1,2.433152829E0
6.584271667E-1,1.151499780E0,-5.272218007E-1,3.903817517E-1,1.325259402E0
6.685081667E-1,6.472782943E-1,-2.880923152E-2,-1.264787098E-1,6.601484879E-1
6.785891667E-1,5.544093069E-1,9.409573317E-2,-4.084104717E-1,6.949984173E-1
6.886691667E-1,4.909047443E-1,2.525108385E-1,-1.508095589E-1,5.722697918E-1
6.987501667E-1,5.218309602E-1,2.320666337E-1,-3.229363849E-1,6.560871758E-1
7.088311667E-1,1.903499660E-1,1.996666270E-1,-1.910729742E-1,3.355722768E-1
7.189121667E-1,2.323668882E-1,2.093478620E-1,5.374596906E-1,6.218390604E-1
7.289931667E-1,9.453234476E-1,-1.046441102E-1,5.203301992E-1,1.084126527E0
7.390731667E-1,1.517289604E0,-5.100175381E-1,6.545601974E-1,1.729374073E0
7.491541667E-1,1.281230784E0,-5.317148012E-1,6.258964884E-1,1.521847353E0
7.592351667E-1,8.237861466E-1,-5.435489810E-1,2.600525042E-1,1.020635300E0
7.693161667E-1,6.896112585E-1,-7.109629512E-1,5.920357011E-2,9.922384131E-1
7.793971667E-1,8.181517696E-1,-7.678961205E-1,-3.260692500E-2,1.122541751E0
7.894771667E-1,1.059221946E0,-6.855573839E-1,-1.235996870E-1,1.267760600E0
7.995581667E-1,1.272645902E0,-5.313493502E-1,-1.750837630E-1,1.390184897E0
8.096391667E-1,1.281695053E0,-4.131706899E-1,-1.599254411E-1,1.356107803E0
8.197201667E-1,1.156746486E0,-3.665186799E-1,-1.385000736E-1,1.221302848E0
8.298011667E-1,1.014165641E0,-3.462610012E-1,-9.253690202E-2,1.075635490E0
8.398821667E-1,8.687950891E-1,-4.019761956E-1,-3.774845481E-2,9.580264686E-1
8.499621667E-1,7.355402604E-1,-5.211898130E-1,-1.731411718E-2,9.016418771E-1
8.600431667E-1,6.891800264E-1,-5.721646696E-1,-7.197264656E-3,8.957640976E-1
8.701241667E-1,6.547861192E-1,-6.089366394E-1,2.262510661E-2,8.944610602E-1
8.802051667E-1,6.237891519E-1,-5.965469742E-1,1.142078161E-1,8.706460956E-1
8.902851667E-1,6.406694788E-1,-6.192423570E-1,1.035617906E-1,8.970192430E-1
9.003661667E-1,6.623629412E-1,-6.157509845E-1,2.021557137E-1,9.266827253E-1
9.104471667E-1,7.006776989E-1,-6.235470772E-1,2.124977571E-1,9.617252684E-1
9.205281667E-1,6.908871210E-1,-6.769087672E-1,1.170683106E-1,9.742871663E-1
9.306091667E-1,6.284008509E-1,-6.487438989E-1,1.111046988E-1,9.100002911E-1
9.406891667E-1,6.553547609E-1,-4.744033170E-1,1.443987812E-1,8.218268539E-1
9.507701667E-1,6.763243380E-1,-4.024182451E-1,1.057673603E-1,7.940666148E-1
9.608511667E-1,6.025520647E-1,-3.240281332E-1,1.337199382E-1,6.970970116E-1
9.709321667E-1,5.784741077E-1,-2.458993918E-1,2.115920234E-1,6.632269510E-1
9.810131667E-1,6.176513296E-1,-1.968494385E-1,2.536405571E-1,6.961152194E-1
9.910941667E-1,7.405063006E-1,-2.679743850E-1,2.991862740E-1,8.424204881E-1
1.001174167E0,8.594296038E-1,-3.192608982E-1,4.206007469E-1,1.008688135E0
1.011255167E0,1.007381409E0,-3.308500797E-1,5.428864914E-1,1.191219888E0
1.021336167E0,1.073373085E0,-2.488604218E-1,7.072985011E-1,1.309325192E0
1.031417167E0,1.172109753E0,-2.250213236E-1,8.543425262E-1,1.467779623E0
1.041497167E0,1.319217221E0,-2.357240671E-1,9.598344827E-1,1.648387741E0
1.051578167E0,1.403422388E0,-1.903403181E-1,1.132791029E0,1.813570884E0
1.061659167E0,1.413441885E0,-2.490101105E-1,1.212031326E0,1.878521741E0
1.071740167E0,1.419030654E0,-2.935389966E-1,1.180676801E0,1.869173841E0
1.081821167E0,1.424535515E0,-3.551628023E-1,1.189840558E0,1.889751995E0
1.091901167E0,1.451348799E0,-4.321601075E-1,1.179852344E0,1.919694572E0
1.101982167E0,1.543310591E0,-5.331228107E-1,1.125608309E0,1.983184706E0
1.112063167E0,1.596239879E0,-6.036080718E-1,1.048403428E0,2.002866497E0
1.122144167E0,1.659891207E0,-5.345553786E-1,8.820922422E-1,1.954245378E0
1.132225167E0,1.896257006E0,-1.548249149E-1,6.664989692E-1,2.015932108E0
1.142305167E0,2.251786429E0,3.987315756E-1,4.856077516E-1,2.337807494E0
1.152386167E0,2.747340002E0,8.936533570E-1,3.144404536E-1,2.906091225E0
1.162467167E0,3.116048172E0,1.299575838E0,1.380931073E-1,3.379012174E0
1.172548167E0,3.001643597E0,1.549266565E0,4.064399600E-2,3.378127160E0
1.182629167E0,2.629710103E0,1.500214857E0,-8.422855675E-2,3.028714958E0
1.192709167E0,2.072784739E0,1.364377606E0,-2.294383103E-1,2.492108498E0
1.202790167E0,1.523394682E0,1.158992402E0,-1.963787377E-1,1.924203564E0
1.212871583E0,9.718642518E-1,8.862238848E-1,-1.433924389E-1,1.323054908E0
1.222952583E0,4.866421241E-1,6.028309768E-1,-7.296974301E-2,7.781711425E-1
1.233033583E0,6.419862717E-2,3.842287266E-1,-3.203806400E-2,3.908703310E-1
1.243113583E0,-4.418559605E-1,4.224958295E-1,-1.160789251E-2,6.114524993E-1
1.253194583E0,-8.859034574E-1,5.460960281E-1,-1.503442027E-1,1.051498544E0
1.263275583E0,-1.015675977E0,7.094754195E-1,-3.981386679E-1,1.301332955E0
1.273356583E0,-1.092300814E0,7.217352766E-1,-5.479115885E-1,1.419235705E0
1.283437583E0,-1.140854339E0,6.657090104E-1,-7.032949126E-1,1.496442730E0
1.293517583E0,-1.130382560E0,5.557491964E-1,-7.942717409E-1,1.489123736E0
1.303598583E0,-1.141263936E0,3.114221209E-1,-9.261381483E-1,1.502397744E0
1.313679583E0,-1.332785392E0,5.641569078E-2,-1.123019162E0,1.743752181E0
1.323760583E0,-1.420150688E0,-1.543436891E-1,-1.154989398E0,1.837022172E0
1.333841583E0,-1.319060808E0,-1.707696873E-1,-9.262422287E-1,1.620804851E0
1.343921583E0,-1.356745528E0,8.623473644E-2,-9.202125800E-1,1.641641267E0
1.354002583E0,-1.514300215E0,3.537851983E-1,-8.711625537E-1,1.782468318E0
1.364083583E0,-1.799737017E0,5.197046202E-1,-9.082567050E-1,2.081844487E0
1.374164583E0,-2.136444545E0,7.575494725E-1,-9.397574099E-1,2.453858286E0
1.384244583E0,-2.586360308E0,1.425192157E0,-6.693892479E-1,3.027955464E0
1.394325583E0,-2.786671883E0,1.850031551E0,-4.838804841E-2,3.345220221E0
1.404406583E0,-2.950331064E0,2.556201539E0,2.852447212E-1,3.914075145E0
1.414487583E0,-2.710305785E0,2.441578571E0,4.671687032E-1,3.677677251E0
1.424568583E0,-1.743021949E0,1.358190082E0,8.272757649E-1,2.359489565E0
1.434648583E0,-9.042555285E-1,1.051636353E0,1.730581413E-1,1.397700326E0
1.444729583E0,-3.220523590E-1,6.225822866E-1,-7.389399777E-1,1.018508084E0
1.454810583E0,1.313030282E-1,-1.622836232E-2,-1.202938174E0,1.210191760E0
1.464891583E0,4.948051295E-1,-3.626665342E-1,-1.644599130E0,1.755296394E0
1.474972583E0,8.767046177E-1,-6.254281265E-1,-2.161133244E0,2.414594837E0
1.485052583E0,7.013869661E-1,-5.722757667E-1,-1.531652412E0,1.779157762E0
1.495133583E0,2.439496377E-1,-1.240679759E-1,-5.057964331E-1,5.750950531E-1
1.505214583E0,-8.983223587E-2,3.737563634E-1,-1.300341824E-1,4.057986426E-1
1.515295583E0,-5.851718009E-1,6.928225493E-1,-6.043302029E-2,9.088901316E-1
1.525376583E0,-1.116870230E0,8.810116768E-1,-1.761619896E-1,1.433392386E0
1.535456583E0,-1.524840406E0,7.575985891E-1,-5.536156936E-1,1.790414539E0
1.545537583E0,-1.797489640E0,6.525621307E-1,-7.558293678E-1,2.056230623E0
1.555618583E0,-1.891790318E0,6.095874345E-1,-6.651412457E-1,2.095919923E0
1.565699583E0,-1.919749072E0,4.248990351E-1,-4.994552739E-1,2.028652573E0
1.575780583E0,-1.798270828E0,1.743680638E-1,-2.419531059E-1,1.822833920E0
1.585860583E0,-1.671890863E0,-2.026446140E-1,-1.815817738E-1,1.693887788E0
1.595941583E0,-1.450950896E0,-6.480603594E-1,-1.875012025E-1,1.600124193E0
1.606022583E0,-1.108257866E0,-1.142397419E0,5.173031688E-3,1.591645099E0
1.616103583E0,-7.597652748E-1,-1.755823551E0,3.314210603E-1,1.941648664E0
1.626183583E0,-4.267292136E-1,-2.466967181E0,4.546935225E-1,2.544557151E0
1.636264583E0,-1.119367576E-1,-2.933092595E0,4.007690379E-1,2.962461448E0
1.646345583E0,9.180625588E-2,-3.027936772E0,1.850279765E-1,3.034973613E0
1.656426583E0,2.536098227E-1,-2.983742931E0,-2.152316228E-2,2.994578946E0
1.666507583E0,5.798999512E-1,-2.625095773E0,5.254541874E-2,2.688898063E0
1.676587583E0,9.649168825E-1,-2.028540028E0,5.069769859E-1,2.302838444E0
1.686668583E0,1.434361176E0,-1.409100620E0,1.140756106E0,2.311770108E0
1.696749583E0,1.878696356E0,-1.139328216E0,1.680136022E0,2.765940316E0
1.706830583E0,1.878352247E0,-1.217226577E0,1.735597447E0,2.832339352E0
1.716911583E0,1.468797475E0,-1.391431503E0,1.632240017E0,2.599549023E0
1.726991583E0,1.035434596E0,-1.373706254E0,1.440356911E0,2.243617994E0
1.737072583E0,6.204419133E-1,-9.465496087E-1,1.416678611E0,1.813251945E0
1.747153583E0,1.851351267E-1,-5.807162225E-2,1.170458792E0,1.186432093E0
1.757234583E0,-1.473469108E-1,9.078714466E-1,7.664468881E-1,1.197239537E0
1.767314583E0,-2.492963317E-1,1.728013024E0,-7.858073115E-2,1.747670622E0
1.777395583E0,-2.129105705E-1,2.389207984E0,-1.182745108E0,2.674421749E0
1.787476583E0,-2.180675223E-1,2.618917605E0,-1.912233207E0,3.250064415E0
1.797557583E0,-5.872972637E-1,2.093245901E0,-1.791637162E0,2.817190125E0
1.807638583E0,-1.033761707E0,1.042132874E0,-1.439603205E0,2.056006221E0
1.817718583E0,-9.741589916E-1,-1.667146432E-1,-1.507448594E0,1.802548412E0
1.827799583E0,-6.224431229E-1,-1.122264286E0,-1.851898274E0,2.253095601E0
1.837880583E0,-2.890497968E-1,-1.788960891E0,-1.925143421E0,2.643881247E0
1.847961583E0,1.430910149E-1,-1.954875636E0,-1.714461663E0,2.604110709E0
1.858042583E0,6.810687688E-1,-1.191103556E0,-1.267266464E0,1.867765146E0
1.868122583E0,8.463423657E-1,-1.634700233E-1,-8.389772129E-1,1.202871819E0
1.878203583E0,2.495714432E-1,5.600012916E-1,-1.030751999E0,1.199306898E0
1.888284583E0,-6.172993273E-1,1.322943651E0,-1.593658041E0,2.161246010E0
1.898365583E0,-1.538309467E0,1.854797616E0,-1.495580939E0,2.836094596E0
1.908445583E0,-2.433536310E0,2.354173806E0,-8.616088611E-1,3.493794944E0
1.918526583E0,-2.712378915E0,2.433483101E0,-2.371238905E-1,3.651721117E0
1.928607583E0,-2.189133513E0,1.839470894E0,2.487135105E-1,2.870159773E0
1.938688583E0,-1.325703829E0,1.014593657E0,-2.222570524E-2,1.669546320E0
1.948769583E0,-4.619174650E-1,3.252975637E-1,-8.138382787E-1,9.907164040E-1
1.958849583E0,2.638608688E-1,-1.655539709E-1,-1.442534268E0,1.475783110E0
1.968930583E0,7.686811092E-1,-4.871888387E-1,-1.852931185E0,2.064358881E0
1.979011583E0,9.694952524E-1,-5.938192481E-1,-1.872256963E0,2.190408291E0
1.989092583E0,1.010476633E0,-4.495023644E-1,-1.733444502E0,2.056196791E0
1.999172583E0,8.395882469E-1,-3.395799726E-1,-1.389944556E0,1.658966200E0
2.009253583E0,5.504425558E-1,-3.534969306E-1,-1.022387411E0,1.213764024E0
2.019334583E0,1.352595466E-1,-3.999577367E-1,-7.050473231E-1,8.217986760E-1
2.029415583E0,-2.434897542E-1,-4.479095829E-1,-4.952194047E-1,7.107408203E-1
2.039496583E0,-3.046799889E-1,-5.457592285E-1,-5.051596713E-1,8.036599558E-1
2.049576583E0,-1.782453525E-1,-4.852978492E-1,-3.558850797E-1,6.276460770E-1
2.059657583E0,-6.187289715E-2,-4.570014185E-1,-2.820814506E-1,5.406001264E-1
2.069738583E0,9.091250896E-3,-4.410525531E-1,-1.880552262E-1,4.795568512E-1
2.079819583E0,2.485008180E-2,-4.436645043E-1,-1.433101393E-2,4.445909321E-1
2.089900583E0,-9.197962582E-3,-4.209989423E-1,6.213828765E-2,4.256593458E-1
2.099980583E0,-9.235764831E-2,-3.819722861E-1,1.510365039E-1,4.210044989E-1
2.110061583E0,-1.581423327E-1,-3.091341054E-1,3.207730613E-1,4.727242848E-1
2.120142583E0,-1.642193440E-1,-2.572868443E-1,4.866187352E-1,5.744234558E-1
2.130223583E0,-1.850292921E-2,-1.817308778E-1,7.372648235E-1,7.595576939E-1
2.140303583E0,2.978688598E-1,-2.083941811E-1,9.039064497E-1,9.742693991E-1
2.150384583E0,7.211464620E-1,-1.790633780E-1,9.342844161E-1,1.193735014E0
2.160465583E0,1.117185979E0,-1.392052478E-1,1.095310961E0,1.570728721E0
2.170546583E0,1.450278466E0,-1.479158449E-1,1.201029205E0,1.888824470E0
2.180627583E0,1.728395724E0,-5.414580166E-2,1.212293866E0,2.111856994E0
2.190707583E0,1.880677977E0,-4.956743181E-2,1.092072846E0,2.175322892E0
2.200788583E0,1.987085023E0,-2.063511640E-1,1.163856189E0,2.312065942E0
2.210869583E0,2.116219026E0,-4.330132163E-1,1.312457839E0,2.527534173E0
2.220950167E0,2.295432386E0,-6.874746859E-1,1.377279487E0,2.763789078E0
2.231030167E0,2.510419887E0,-8.912916666E-1,1.382098178E0,3.001133822E0
2.241111167E0,2.700302076E0,-9.694016969E-1,1.450386055E0,3.214808028E0
2.251192167E0,2.819724439E0,-8.122899359E-1,1.433917372E0,3.266003656E0
2.261273167E0,2.922614384E0,-5.623050946E-1,1.049232563E0,3.155748854E0
2.271354167E0,2.842834389E0,-1.297842139E-1,2.853038146E-1,2.860061114E0
2.281434167E0,2.642213789E0,6.717141008E-1,-1.201333479E-1,2.728905561E0
2.291515167E0,2.440874566E0,1.808964801E0,-2.830438292E-1,3.051284337E0
2.301596167E0,2.235000535E0,2.704655913E0,-9.024686193E-1,3.622822188E0
2.311677167E0,1.999730504E0,3.127407850E0,-1.401992159E0,3.968020157E0
2.321757167E0,1.282420985E0,2.906080213E0,-9.310217428E-1,3.310091731E0
2.331838167E0,1.431968495E-1,2.531599964E0,-2.705360685E-1,2.550037937E0
2.341919167E0,-8.770838097E-1,2.211345624E0,1.393387835E-2,2.378974491E0
2.352000167E0,-1.637201964E0,2.231979278E0,-1.062731445E-1,2.770100314E0
2.362081167E0,-1.879044265E0,1.553464281E0,-5.364194709E-1,2.496358242E0
2.372161167E0,-1.964890746E0,8.521720397E-1,-9.494317013E-1,2.342736303E0
2.382242167E0,-1.963017299E0,3.616830325E-1,-1.014441045E0,2.239049389E0
2.392323167E0,-1.796730379E0,5.814646661E-2,-1.002051453E0,2.058088477E0
2.402404167E0,-1.459265929E0,-1.325353289E-1,-1.007081739E0,1.777986585E0
2.412484167E0,-1.074025342E0,-2.985120535E-1,-9.521220052E-1,1.466006887E0
2.422565167E0,-7.573030123E-1,-3.836732411E-1,-6.592245213E-1,1.074844164E0
2.432646167E0,-5.367919385E-1,-5.185989118E-1,-1.226389895E-1,7.563932432E-1
2.442727167E0,-4.837056524E-1,-5.898600984E-1,1.810396638E-1,7.840162330E-1
2.452808167E0,-6.746213365E-1,-4.261766517E-1,1.933287569E-1,8.210459758E-1
2.462888167E0,-1.053433495E0,-2.107786757E-1,-1.050639403E-1,1.079438840E0
2.472969167E0,-1.401781660E0,9.395072222E-2,-4.257293397E-1,1.468013634E0
2.483050167E0,-1.643675416E0,5.171289217E-1,-4.744524336E-1,1.787231465E0
2.493131167E0,-1.756664088E0,8.613837433E-1,-6.542671788E-1,2.062987206E0
2.503211167E0,-2.043865580E0,7.468174928E-1,-6.768222284E-1,2.278861822E0
2.513292167E0,-2.088115261E0,1.197306283E0,-1.028362534E0,2.617498268E0
2.523373167E0,-1.784444794E0,1.545636613E0,-1.221670168E0,2.658141036E0
2.533454167E0,-1.532069027E0,1.849935656E0,-9.030387229E-1,2.566120880E0
2.543535167E0,-1.262706220E0,1.907427819E0,-6.211795396E-1,2.370352696E0
2.553615167E0,-9.452781317E-1,1.491300192E0,-5.917620514E-1,1.862178653E0
2.563696167E0,-9.470878449E-1,7.333121789E-1,-5.625921929E-1,1.323341269E0
2.573777167E0,-1.083945436E0,1.633595109E-2,-5.949701263E-1,1.236605847E0
2.583858167E0,-1.046950687E0,-4.541783828E-1,-6.079776961E-1,1.293066365E0
2.593938167E0,-1.032211903E0,-4.916806698E-1,-4.264516170E-1,1.220275491E0
2.604019167E0,-1.048881145E0,-4.181677204E-1,-2.295080383E-1,1.152254242E0
2.614100167E0,-1.040761701E0,-4.722562194E-1,-3.208282444E-1,1.187072710E0
2.624181167E0,-9.765358847E-1,-4.578492647E-1,-3.304401898E-1,1.128024380E0
2.634262167E0,-9.339359951E-1,-5.398862851E-1,-4.206593652E-1,1.157872163E0
2.644342167E0,-9.473714349E-1,-5.920370167E-1,-5.028421274E-1,1.225100269E0
2.654423167E0,-8.902549553E-1,-5.840643382E-1,-5.261757338E-1,1.187664068E0
2.664504167E0,-8.289217561E-1,-6.659832448E-1,-2.536202015E-1,1.093145995E0
2.674585167E0,-7.099817884E-1,-8.741324276E-1,8.549243242E-2,1.129376198E0
2.684665167E0,-4.020332059E-1,-1.113401077E0,3.227353138E-1,1.226968108E0
2.694746167E0,-1.621006054E-1,-1.468127677E0,6.459253947E-1,1.612108897E0
2.704827167E0,9.438517034E-2,-1.810479814E0,7.214867699E-1,1.951227531E0
2.714908167E0,4.547864932E-1,-1.857692572E0,4.140390015E-1,1.956854809E0
2.724988167E0,9.740364924E-1,-1.631847961E0,2.669924913E-1,1.919103918E0
2.735069167E0,1.286638581E0,-1.310758638E0,3.869967985E-1,1.877043838E0
2.745150167E0,1.316013531E0,-1.082825401E0,5.041831863E-1,1.777245945E0
2.755231167E0,1.207537156E0,-1.030812079E0,8.445765066E-1,1.798340624E0
2.765312167E0,1.275861286E0,-1.096511979E0,1.336865287E0,2.148806491E0
2.775392167E0,1.459075018E0,-1.233975341E0,1.648763371E0,2.523889004E0
2.785473167E0,1.613648795E0,-1.478500053E0,1.835131091E0,2.856139170E0
2.795554167E0,1.543790355E0,-1.868633298E0,1.932784270E0,3.100118400E0
2.805635167E0,1.151222622E0,-2.195986158E0,2.021581256E0,3.199134181E0
2.815715167E0,6.213874081E-1,-2.325193836E0,1.899973789E0,3.066357625E0
2.825796167E0,8.824822515E-2,-2.299826860E0,1.353945004E0,2.670235647E0
2.835877167E0,-3.851581416E-1,-2.210353936E0,9.786844441E-1,2.447822411E0
2.845958167E0,-7.469136795E-1,-1.782883295E0,8.466630855E-1,2.110305966E0
2.856039167E0,-1.034130374E0,-7.083065611E-1,8.213487348E-1,1.498578513E0
2.866119167E0,-1.108406093E0,1.270874196E0,5.626839942E-1,1.777722860E0
2.876200167E0,-7.597620589E-1,4.000506490E0,-4.416349357E-1,4.095892086E0
2.886281167E0,-1.219539151E-1,6.511887951E0,-1.968252018E0,6.803938085E0
2.896362167E0,3.744708931E-1,7.804681020E0,-2.691063183E0,8.264084663E0
2.906442167E0,4.511881167E-1,7.373658196E0,-1.658316114E0,7.571289074E0
2.916523167E0,-1.215834939E-1,5.383029175E0,-4.801701334E-1,5.405769973E0
2.926604167E0,-1.821758216E0,1.378568798E0,-2.054389983E-1,2.293787286E0
2.936685167E0,-2.449263274E0,-8.298362607E-1,-7.154290545E-1,2.683161854E0
2.946766167E0,-2.548637289E0,-2.039317616E0,-1.404789906E0,3.553562022E0
2.956846167E0,-2.416929925E0,-2.780987220E0,-2.100547319E0,4.241195494E0
2.966927167E0,-2.040419231E0,-2.977296376E0,-2.382279910E0,4.324680557E0
2.977008167E0,-1.539528027E0,-2.787964702E0,-2.065432158E0,3.795906180E0
2.987089167E0,-1.065517643E0,-2.136051028E0,-1.841843110E0,3.015033645E0
2.997169167E0,-6.179781890E-1,-9.569863039E-1,-2.064078966E0,2.357571167E0
3.007250167E0,-3.057877439E-1,4.190038723E-1,-2.206558508E0,2.266709253E0
3.017331167E0,-9.673311979E-2,1.645126988E0,-2.043007209E0,2.624819719E0
3.027412167E0,-9.463543117E-2,2.282002208E0,-1.949012779E0,3.002522399E0
3.037492167E0,-3.948805994E-1,2.366288068E0,-1.816993905E0,3.009437947E0
3.047573167E0,-8.036471665E-1,2.011572577E0,-1.654171607E0,2.725537875E0
3.057654167E0,-8.583490384E-1,1.262860002E0,-1.424673070E0,2.088365824E0
3.067735167E0,-1.600777611E-1,5.895057571E-1,-1.554392234E0,1.670112914E0
3.077816167E0,4.507902136E-1,5.261617005E-2,-1.198921430E0,1.281948857E0
3.087896167E0,6.876053712E-1,-4.570563823E-1,-8.419084221E-1,1.179199506E0
3.097977167E0,7.524647337E-1,-8.400723964E-1,-8.530855210E-1,1.414100319E0
3.108058167E0,7.656873348E-1,-1.037773774E0,-9.398628791E-1,1.595805042E0
3.118139167E0,7.328911793E-1,-1.074042884E0,-1.184958863E0,1.759211501E0
3.128219167E0,6.986013526E-1,-9.552333087E-1,-1.420367181E0,1.848771877E0
3.138300167E0,6.394748926E-1,-7.488084698E-1,-1.411556596E0,1.721085206E0
3.148381167E0,4.139811140E-1,-5.532372326E-1,-1.158058748E0,1.348536934E0
3.158462167E0,9.629837930E-2,-2.667950016E-1,-8.220058157E-1,8.695668529E-1
3.168543167E0,-1.328110251E-1,-1.201602817E-3,-5.645032091E-1,5.799173091E-1
3.178623167E0,-2.996344265E-1,1.864156669E-1,-4.186653916E-1,5.475511853E-1
3.188704167E0,-3.559214786E-1,2.266930425E-1,-4.212989044E-1,5.962907020E-1
3.198785167E0,-3.970934781E-1,2.773088801E-1,-2.177181512E-1,5.310222582E-1
3.208866167E0,-2.097147748E-1,2.476079482E-1,-7.235534683E-2,3.324534238E-1
3.218946458E0,4.094600469E-2,7.482038677E-2,-7.772484496E-2,1.153941814E-1
3.229027458E0,1.919529802E-1,-1.404910505E-2,2.162328853E-1,2.894822700E-1
3.239108458E0,3.852215838E-1,-1.290503883E-1,2.797114279E-1,4.932424904E-1
3.249189458E0,5.610151988E-1,-2.977349585E-1,2.661499806E-1,6.886363126E-1
3.259269458E0,6.414111981E-1,-4.336476392E-1,2.923402443E-1,8.275997936E-1
3.269350458E0,6.571475172E-1,-5.859711152E-1,3.517947330E-1,9.481374064E-1
3.279431458E0,6.667884064E-1,-7.411006701E-1,4.952100492E-1,1.113135201E0
3.289512458E0,6.633771408E-1,-7.200951326E-1,6.736437551E-1,1.188445262E0
3.299593458E0,7.158784130E-1,-6.241762376E-1,8.399940437E-1,1.267938434E0
3.309673458E0,8.570895481E-1,-4.454555064E-1,1.026805567E0,1.409738548E0
3.319754458E0,9.111415020E-1,-4.009324676E-1,1.179601498E0,1.543497773E0
3.329835458E0,9.297680998E-1,-4.144541538E-1,1.242887083E0,1.606551980E0
3.339916458E0,1.001821584E0,-2.709652358E-1,1.349767168E0,1.702627397E0
3.349996458E0,1.030721155E0,-1.538115925E-1,1.296573293E0,1.663474199E0
3.360077458E0,1.046482033E0,-1.231365144E-1,1.243653653E0,1.630018912E0
3.370158458E0,1.163464937E0,-2.531552017E-2,1.094894639E0,1.597837854E0
3.380239458E0,1.348817873E0,6.181676388E-3,8.171624207E-1,1.577054942E0
3.390319458E0,1.429145167E0,2.480763102E-1,5.139357207E-1,1.538872214E0
3.400400458E0,1.328802561E0,9.177631813E-1,1.221284910E-1,1.619543415E0
3.410481458E0,1.276794794E0,1.742863197E0,-2.643491113E-1,2.176616072E0
3.420562458E0,1.465713946E0,2.318861886E0,-3.988725301E-1,2.772099766E0
3.430643458E0,1.591876979E0,2.437918214E0,-4.211907675E-1,2.941924404E0
3.440723458E0,1.192015429E0,2.438340967E0,-2.575873911E-1,2.726308625E0
3.450804458E0,4.502361900E-1,2.247745711E0,-3.780096281E-1,2.323352036E0
3.460885458E0,-2.802050060E-1,1.885996020E0,-6.390229028E-1,2.010931650E0
3.470966458E0,-6.401657411E-1,1.390733346E0,-1.012531929E0,1.835530529E0
3.481046458E0,-1.070583671E0,9.915988970E-1,-1.185673832E0,1.880223445E0
3.491127458E0,-1.441914609E0,8.319816041E-1,-1.055494346E0,1.971136587E0
3.501208458E0,-1.594439522E0,5.815342480E-1,-7.884385586E-1,1.871377789E0
3.511289458E0,-1.502977667E0,2.917760611E-1,-4.903188898E-1,1.607634209E0
3.521369458E0,-1.162667962E0,7.980455339E-2,-3.636155373E-1,1.220811949E0
3.531450458E0,-7.246647316E-1,-6.012516439E-2,-3.492856928E-1,8.066935625E-1
3.541531458E0,-3.682667050E-1,-1.631162667E-1,-1.236043648E-1,4.213138040E-1
3.551612458E0,-1.404167908E-1,-1.806497276E-1,-5.025506437E-2,2.342579150E-1
3.561693458E0,1.027297318E-2,-6.880067825E-2,-2.233870268E-1,2.339675855E-1
3.571773458E0,9.898751378E-3,1.718900138E-1,-3.893099570E-1,4.256834561E-1
3.581854458E0,-2.672964004E-1,5.204653430E-1,-4.175255500E-1,7.187900415E-1
3.591935458E0,-6.188312978E-1,8.662895572E-1,-4.188440971E-1,1.144045519E0
3.602016458E0,-9.839595097E-1,1.343684894E0,-2.478506076E-1,1.683774135E0
3.612096458E0,-1.277843492E0,1.824088624E0,-1.852047086E-2,2.227223901E0
3.622177458E0,-1.329254843E0,1.764563969E0,-1.332387489E-1,2.213223216E0
3.632258458E0,-1.321860454E0,1.339900576E0,-5.464446683E-1,1.959910812E0
3.642339458E0,-1.384609264E0,7.032867265E-1,-7.407154848E-1,1.720585500E0
3.652419458E0,-1.519586391E0,9.571365774E-2,-6.552411787E-1,1.657602155E0
3.662500458E0,-1.543195986E0,-2.227835941E-1,-5.430274093E-1,1.651049711E0
3.672581458E0,-1.527511999E0,-4.288505834E-1,-4.125086389E-1,1.639319709E0
3.682662458E0,-1.450795945E0,-4.944551736E-1,-2.989527874E-1,1.561623374E0
3.692742458E0,-1.307744106E0,-4.056581873E-1,-2.351187341E-1,1.389256647E0
3.702823458E0,-1.171697524E0,-3.759987706E-1,-2.044147123E-1,1.247411536E0
3.712904458E0,-1.033120560E0,-3.461113125E-1,-2.798565120E-1,1.124922575E0
3.722985458E0,-8.936858091E-1,-2.336126375E-1,-3.513933948E-1,9.882947473E-1
3.733066458E0,-7.763292673E-1,-1.819197428E-1,-3.044412763E-1,8.535024399E-1
3.743146458E0,-7.224117994E-1,-2.249032098E-1,-1.446750256E-1,7.703188462E-1
3.753227458E0,-7.573755178E-1,-3.197035325E-1,5.453668803E-2,8.238945770E-1
3.763308458E0,-8.733743361E-1,-4.695588988E-1,2.802664018E-1,1.030445315E0
3.773389458E0,-9.119805774E-1,-8.016825020E-1,4.858660524E-1,1.307849085E0
3.783469458E0,-7.250515249E-1,-1.359824379E0,6.399262977E-1,1.668630493E0
3.793550458E0,-3.728938991E-1,-1.730125623E0,6.935610527E-1,1.900897542E0
3.803631458E0,-2.508250862E-2,-1.811467409E0,7.059014551E-1,1.944309690E0
3.813712458E0,3.775336647E-1,-1.679098141E0,7.470863186E-1,1.876177018E0
3.823792458E0,6.869297254E-1,-1.724527498E0,8.111067519E-1,2.025774347E0
3.833873458E0,8.988603026E-1,-1.776721500E0,7.879257578E-1,2.141381827E0
3.843954458E0,1.019869892E0,-1.683875316E0,9.838149373E-1,2.200786793E0
3.854035458E0,7.902041253E-1,-1.670572901E0,1.319915670E0,2.270994001E0
3.864115458E0,5.126748052E-1,-1.853253366E0,1.431387574E0,2.397134515E0
3.874196458E0,3.057713717E-1,-2.062501241E0,1.715561963E0,2.700103766E0
3.884277458E0,2.273338974E-1,-2.127524618E0,1.940780337E0,2.888714250E0
3.894358458E0,2.724416578E-1,-2.145914111E0,1.840854346E0,2.840407814E0
3.904439458E0,6.301339656E-2,-1.991784430E0,1.733319957E0,2.641131193E0
3.914519458E0,-2.986170110E-1,-1.335953706E0,1.860502452E0,2.309851467E0
3.924600458E0,-6.628041136E-1,3.067139429E-1,1.920886940E0,2.055039993E0
3.934681458E0,-7.070228049E-1,2.694508654E0,1.175270319E0,3.023494412E0
3.944762458E0,-1.310264549E-1,4.921603754E0,-5.191450417E-1,4.950642687E0
3.954842458E0,4.856837654E-1,6.258700005E0,-1.770230505E0,6.522340877E0
3.964923458E0,8.791133782E-1,6.748000858E0,-1.929718575E0,7.073342187E0
3.975004458E0,8.035851860E-1,5.456705262E0,-1.963174150E0,5.854522543E0
3.985085458E0,-4.996621192E-1,2.167144182E0,-1.771521863E0,2.843319512E0
3.995165458E0,-1.411081364E0,-7.720148993E-1,-1.575321319E0,2.251398427E0
4.005246458E0,-1.797924381E0,-2.383571852E0,-1.679311272E0,3.425497512E0
4.015327458E0,-1.915071007E0,-3.367202749E0,-2.276439167E0,4.493075405E0
4.025408458E0,-1.794511946E0,-3.787185445E0,-2.824210423E0,5.053633468E0
4.035488458E0,-1.636094794E0,-3.363186881E0,-2.715480278E0,4.621868162E0
4.045569458E0,-1.294750716E0,-2.162075815E0,-2.223283299E0,3.360645753E0
4.055650458E0,-8.106436524E-1,-4.662943983E-1,-1.818933865E0,2.045261353E0
4.065731458E0,-5.526823318E-1,9.417028517E-1,-2.041627266E0,2.315276207E0
4.075812458E0,-7.464078954E-1,1.746428829E0,-2.428612370E0,3.083066079E0
4.085892458E0,-1.061368167E0,2.423718250E0,-2.195235960E0,3.438018828E0
4.095973458E0,-1.162405129E0,3.014215695E0,-1.568287850E0,3.591129171E0
4.106054458E0,-9.467615703E-1,3.208226311E0,-1.078286354E0,3.514509211E0
4.116135458E0,-5.442012379E-1,2.737093341E0,-9.386846651E-1,2.944310420E0
4.126215458E0,-8.971792281E-2,1.611691439E0,-1.173142518E0,1.995460340E0
4.136296458E0,3.280773300E-1,5.484904629E-1,-1.379611357E0,1.520461778E0
4.146377458E0,7.167326912E-1,-2.032907313E-1,-1.395511837E0,1.581924827E0
4.156458458E0,1.135861986E0,-6.557512021E-1,-1.178122737E0,1.762998944E0
4.166538458E0,1.489371781E0,-8.449431270E-1,-1.057996223E0,2.012837102E0
4.176619458E0,1.517896253E0,-1.091966938E0,-1.213679802E0,2.229219480E0
4.186700458E0,1.124026637E0,-1.158205951E0,-1.161845989E0,1.988658596E0
4.196781458E0,7.220001554E-1,-1.040761701E0,-1.078729865E0,1.663768994E0
4.206861458E0,2.716271406E-1,-9.906686050E-1,-9.620195872E-1,1.407368919E0
4.216946167E0,-1.487461495E-1,-8.321845025E-1,-7.840566552E-1,1.152996662E0
4.227027167E0,-3.643356219E-1,-6.560599351E-1,-6.155613886E-1,9.706033726E-1
4.237108167E0,-5.735621542E-1,-5.545698130E-1,-4.068263148E-1,8.955606471E-1
4.247188167E0,-5.185079876E-1,-3.098562366E-1,-2.852933262E-1,6.680222320E-1
4.257269167E0,-2.394449428E-1,-1.565580297E-1,-1.428300098E-1,3.197572657E-1
4.267350167E0,1.319652253E-1,-1.524719954E-1,-4.131766833E-2,2.058389657E-1
4.277431167E0,6.001634771E-1,-1.750749922E-1,2.473518401E-1,6.723320496E-1
4.287512167E0,9.581308964E-1,-2.275028819E-1,6.318729275E-1,1.170058021E0
4.297592167E0,1.204090222E0,-2.914386767E-1,9.590374341E-1,1.566691599E0
4.307673167E0,1.467369878E0,-4.998106384E-1,1.166278544E0,1.939894501E0
4.317754167E0,1.654904702E0,-7.161108398E-1,1.338634070E0,2.245766123E0
4.327835167E0,1.820580587E0,-9.593819082E-1,1.461584643E0,2.524115090E0
4.337915167E0,1.850881736E0,-1.072410926E0,1.530879411E0,2.630479075E0
4.347996167E0,1.807061240E0,-1.086065344E0,1.639109033E0,2.670521799E0
4.358077167E0,1.796567827E0,-9.847781199E-1,1.705543343E0,2.665768557E0
4.368158167E0,1.903266941E0,-7.725189292E-1,1.732950997E0,2.687439246E0
4.378238167E0,2.062089305E0,-5.802899605E-1,1.968210796E0,2.909089630E0
4.388319167E0,2.374278580E0,-5.363036960E-1,1.931184472E0,3.107135963E0
4.398400167E0,2.786728893E0,-4.605828381E-1,1.412558078E0,3.158055541E0
4.408481167E0,3.049365063E0,1.410172999E-1,8.134774324E-1,3.159154744E0
4.418561167E0,2.904824523E0,1.451719805E0,-3.852888999E-1,3.270159543E0
4.428642167E0,2.378542955E0,3.006797917E0,-1.114306884E0,3.992490468E0
4.438723167E0,1.986386573E0,4.290230763E0,-1.206995630E0,4.879410832E0
4.448804167E0,1.770520527E0,4.276986235E0,-7.326473504E-1,4.686590054E0
4.458884167E0,1.317095558E0,3.369983684E0,-1.307215957E-1,3.620582671E0
4.468965167E0,3.440142086E-1,2.530166811E0,-2.345576207E-1,2.564197174E0
4.479046167E0,-5.078309718E-1,1.611280380E0,-3.469644213E-1,1.724674192E0
4.489127167E0,-8.392800987E-1,1.090180614E0,-5.859577397E-1,1.495403400E0
4.499207167E0,-1.246478735E0,5.543014258E-1,-5.828856126E-1,1.483480686E0
4.509288167E0,-2.099982770E0,3.333906949E-1,-5.031348536E-1,2.184999239E0
4.519369167E0,-2.641846291E0,3.603557146E-1,-3.168138385E-1,2.685065935E0
4.529450167E0,-2.716164110E0,3.332427603E-1,1.298040944E-1,2.739607146E0
4.539530167E0,-2.367894883E0,9.082012296E-2,3.256688619E-1,2.391910257E0
4.549611167E0,-1.724384826E0,-3.505452561E-1,6.451130703E-2,1.760836936E0
4.559692167E0,-9.724454650E-1,-8.286849439E-1,-5.132042706E-1,1.376861483E0
4.569773167E0,-1.628730226E-1,-1.037128826E0,-9.208415942E-1,1.396464488E0
4.579853167E0,4.137808469E-1,-9.632843399E-1,-9.325256467E-1,1.403116314E0
4.589934167E0,5.549621612E-1,-6.165871364E-1,-1.074229556E0,1.357251574E0
4.600015167E0,3.812861153E-1,-2.863673866E-2,-1.241756816E0,1.299291790E0
4.610096167E0,-4.409940809E-2,5.874469525E-1,-8.412371618E-1,1.026994957E0
4.620176167E0,-5.505767494E-1,1.253456510E0,-3.503294939E-1,1.413159132E0
4.630257167E0,-8.172735178E-1,1.754696208E0,-6.523680031E-2,1.936788740E0
4.640338167E0,-9.553619474E-1,1.707621444E0,-9.091353223E-2,1.958814110E0
4.650419167E0,-9.980284953E-1,1.124165216E0,-4.037315297E-1,1.556537008E0
4.660500167E0,-1.155044362E0,5.674582458E-1,-6.623497850E-1,1.447357446E0
4.670580167E0,-1.613403212E0,4.936096662E-1,-4.603192748E-1,1.748889436E0
4.680661167E0,-1.881350407E0,5.884111583E-2,-7.040090038E-1,2.009619444E0
4.690742167E0,-1.240424528E0,-1.340125694E0,-1.522479008E0,2.377505461E0
4.700823167E0,-6.640337831E-1,-1.805725443E0,-1.640187260E0,2.528200840E0
4.710903167E0,-5.104037467E-1,-1.298108187E0,-1.243704523E0,1.868795813E0
4.720984167E0,-5.224054492E-1,-6.623924696E-1,-6.209275246E-1,1.047483760E0
4.731065167E0,-5.638458359E-1,-3.097404617E-1,-2.194420566E-1,6.797176594E-1
4.741146167E0,-7.118210301E-1,-1.907946467E-3,-2.257782456E-1,7.467721442E-1
4.751226167E0,-1.008847891E0,1.876114225E-1,-2.945400399E-1,1.067579481E0
4.761307167E0,-1.267898548E0,1.552266186E-1,-3.458496496E-1,1.323357099E0
4.771388167E0,-1.523497301E0,-9.212288260E-3,-3.591681451E-1,1.565289318E0
4.781469167E0,-1.735698896E0,-3.082728106E-1,-2.461768422E-1,1.779967927E0
4.791549167E0,-1.831817474E0,-6.512044072E-1,-6.133875400E-2,1.945092512E0
4.801630167E0,-1.709584647E0,-9.310539025E-1,2.879987597E-1,1.967862881E0
4.811711167E0,-1.403915893E0,-1.135526941E0,6.747821349E-1,1.927623459E0
4.821792167E0,-1.126124033E0,-1.238481206E0,7.073522955E-1,1.817233696E0
4.831872167E0,-8.199372169E-1,-1.108083034E0,4.724886462E-1,1.457185840E0
4.841953167E0,-4.298162511E-1,-6.554641038E-1,4.504107293E-1,9.040160542E-1
4.852034167E0,3.577823550E-2,-3.547844875E-1,9.179485381E-1,9.847749150E-1
4.862115167E0,3.754353914E-1,-4.660821444E-1,1.421292649E0,1.542159879E0
4.872195167E0,5.820458794E-1,-7.554298568E-1,1.636671622E0,1.894240130E0
4.882276167E0,7.612583613E-1,-9.875602251E-1,1.531630193E0,1.975014060E0
4.892357167E0,9.806543711E-1,-1.211149566E0,1.493718893E0,2.158648280E0
4.902438167E0,1.084676045E0,-1.459329371E0,1.654073228E0,2.458072940E0
4.912518167E0,1.069152857E0,-1.627944360E0,1.854621322E0,2.689407169E0
4.922599167E0,1.013624189E0,-1.756672567E0,1.981049527E0,2.835117234E0
4.932680167E0,7.193724167E-1,-1.852239459E0,1.903044454E0,2.751338925E0
4.942761167E0,2.800670117E-1,-1.824382739E0,1.608820164E0,2.448491828E0
4.952841167E0,-1.120422998E-1,-1.729888811E0,1.350410362E0,2.197425066E0
4.962922167E0,-5.159726349E-1,-1.561969056E0,1.276961147E0,2.082451647E0
4.973003167E0,-8.706319919E-1,-1.294901574E0,1.177485683E0,1.954799910E0
4.983084167E0,-1.059269016E0,-4.663440996E-1,1.097138801E0,1.594754281E0
4.993164167E0,-8.882815200E-1,1.399972531E0,7.460670027E-1,1.818126266E0
5.003245167E0,-2.161049044E-1,4.045060519E0,-3.122831234E-1,4.062848346E0
5.013326167E0,5.900229433E-1,6.388159699E0,-1.162289647E0,6.519787469E0
5.023407167E0,9.279235956E-1,7.672809350E0,-1.339860815E0,7.843995954E0
5.033487167E0,9.239243925E-1,7.441340886E0,-2.093664269E0,7.785282303E0
5.043568167E0,-4.200847301E-1,3.594561204E0,-3.129876252E0,4.784711777E0
5.053649167E0,-2.315441557E0,-1.652662879E-1,-2.349536964E0,3.302863379E0
5.063730167E0,-2.676452745E0,-1.677355671E0,-1.953566444E0,3.713939040E0
5.073810167E0,-2.543022792E0,-2.521848562E0,-2.329162926E0,4.272199086E0
5.083891167E0,-2.314482614E0,-2.749728590E0,-2.543385904E0,4.403027248E0
5.093972167E0,-1.886439239E0,-2.140582035E0,-2.467379994E0,3.772096034E0
5.104053167E0,-1.262373806E0,-9.552496809E-1,-2.196315064E0,2.707376855E0
5.114133167E0,-6.967600644E-1,6.046903914E-1,-2.288909232E0,2.467839243E0
5.124214167E0,-4.488325658E-1,1.963249433E0,-2.830130728E0,3.473534072E0
5.134295167E0,-7.406445873E-1,2.660312968E0,-3.026581972E0,4.097074313E0
5.144376167E0,-1.233223682E0,2.729538154E0,-2.547864871E0,3.932281092E0
5.154456167E0,-1.519612995E0,2.427670968E0,-1.868434639E0,3.419628340E0
5.164537167E0,-1.363570398E0,1.954672737E0,-1.462447692E0,2.796215834E0
5.174618167E0,-9.535794237E-1,1.339847367E0,-1.092573441E0,1.974391402E0
5.184699167E0,-5.229223430E-1,6.159474510E-1,-8.094598836E-1,1.143706406E0
5.194779167E0,-1.966301680E-2,1.380439907E-1,-6.895650655E-1,7.035216821E-1
5.204860167E0,5.868519983E-1,-3.289105582E-1,-7.082703084E-1,9.768440269E-1
5.214937167E0,1.123559445E0,-6.103832406E-1,-8.035498103E-1,1.510180725E0
5.225018167E0,1.571531885E0,-9.332343292E-1,-1.045220496E0,2.105498673E0
5.235098167E0,1.705954695E0,-1.226853433E0,-1.181152765E0,2.410512937E0
5.245179167E0,1.572377685E0,-1.381410545E0,-1.158739071E0,2.392350918E0
5.255260167E0,1.330286877E0,-1.377076589E0,-1.123723897E0,2.220080743E0
5.265341167E0,1.096938826E0,-1.250780239E0,-1.205293725E0,2.054375564E0
5.275421167E0,8.771425742E-1,-1.174116225E0,-1.249178687E0,1.925714256E0
5.285502167E0,6.533143750E-1,-1.001754926E0,-1.031698663E0,1.579472930E0
5.295583167E0,7.436021090E-2,-5.855986476E-1,-1.508692735E-1,6.092755983E-1
5.305664167E0,-9.443981257E-1,8.983018935E-2,-1.392988032E-1,9.588333741E-1
5.315744167E0,-6.826516101E-1,-8.233055055E-2,-6.794792032E-1,9.666868820E-1
5.325825167E0,-5.997486171E-1,1.505307198E-1,-3.890605733E-2,6.195737104E-1
5.335906167E0,-3.467650312E-1,1.566603559E-1,1.914835949E-1,4.259746719E-1
5.345987167E0,9.121100932E-2,-7.726978540E-2,3.956391294E-1,4.133042326E-1
5.356067167E0,4.103514549E-1,-1.891656125E-1,5.557013954E-1,7.162234193E-1
5.366148167E0,6.567078066E-1,-2.422524834E-1,4.561180504E-1,8.354610014E-1
5.376229167E0,7.980335471E-1,-2.822106010E-1,7.758856098E-1,1.148259050E0
5.386310167E0,8.372248024E-1,-3.808197999E-1,9.405544585E-1,1.315527187E0
5.396390167E0,7.942571229E-1,-5.782264781E-1,8.666281110E-1,1.310051343E0
5.406471167E0,7.077937603E-1,-7.710506934E-1,9.927065058E-1,1.442552386E0
5.416552167E0,6.960744783E-1,-9.158236599E-1,1.115786156E0,1.602570249E0
5.426633167E0,7.516829610E-1,-8.519387358E-1,8.379855251E-1,1.411753032E0
5.436713167E0,9.153707930E-1,-6.566072345E-1,8.324949896E-1,1.400744322E0
5.446794167E0,1.271795425E0,-4.990908462E-1,7.188484331E-1,1.543793491E0
5.456875167E0,1.628419154E0,-3.793889862E-1,5.222095674E-1,1.751681414E0
5.466956167E0,1.798473434E0,-3.733119750E-1,6.262970227E-1,1.940648470E0
5.477036167E0,1.848831117E0,-5.740123898E-1,8.794849688E-1,2.126302080E0
5.487117167E0,1.872374346E0,-8.784371477E-1,1.085591646E0,2.335796810E0
5.497198167E0,1.909483408E0,-1.148092023E0,1.325606473E0,2.592580703E0
5.507279167E0,2.007171670E0,-1.212945830E0,1.520739754E0,2.795107351E0
5.517359167E0,2.194565577E0,-9.033538878E-1,1.706491177E0,2.923059776E0
5.527440167E0,2.274759847E0,-2.389546537E-1,1.827016910E0,2.927391753E0
5.537521167E0,2.202158478E0,8.171296763E-1,1.309027278E0,2.689006375E0
5.547602167E0,2.330457792E0,2.070138289E0,-2.672844136E-1,3.128569484E0
5.557682167E0,2.467500447E0,3.750885345E0,-1.073451876E0,4.616275367E0
5.567763167E0,2.542027596E0,5.078540098E0,-2.076934508E0,6.047076217E0
5.577844167E0,2.490686411E0,4.710001205E0,-2.058034553E0,5.711666690E0
5.587925167E0,2.052832870E0,3.393004757E0,-1.445025328E0,4.220746649E0
5.598005167E0,1.246227012E0,2.432976147E0,-1.242786511E0,3.002827502E0
5.608086167E0,3.631153080E-1,1.564824836E0,-1.127374899E0,1.962524817E0
5.618167167E0,-3.652159202E-1,1.016899214E0,-1.077335451E0,1.525817274E0
5.628248167E0,-1.022591479E0,8.755451149E-1,-8.482953358E-1,1.591187468E0
5.638328167E0,-1.611658402E0,1.034720358E0,-5.963581091E-1,2.005924231E0
5.648409167E0,-1.944874558E0,1.184434222E0,-2.287055080E-1,2.288608241E0
5.658490167E0,-2.217067417E0,9.299522871E-1,-6.349908091E-2,2.405042893E0
5.668571167E0,-2.362121049E0,2.989593655E-1,-1.593969990E-1,2.386294189E0
5.678651167E0,-1.971896588E0,-2.823462564E-1,-1.634688538E-1,1.998703987E0
5.688732167E0,-1.229387324E0,-8.537320769E-1,-2.315532482E-1,1.514552263E0
5.698813167E0,-4.880998349E-1,-1.073233044E0,-4.289716208E-1,1.254626346E0
5.708894167E0,3.717250407E-2,-1.093811735E0,-6.366736378E-1,1.266159243E0
5.718974167E0,7.072938234E-2,-1.027713055E0,-8.309893316E-1,1.323533165E0
5.729055167E0,-1.482941598E-1,-5.492850995E-1,-8.755059385E-1,1.044134056E0
5.739136167E0,-4.254045269E-1,-1.748054355E-1,-6.709288198E-1,8.134318859E-1
5.749217167E0,-5.328038451E-1,5.149993658E-2,-6.478462051E-1,8.403790135E-1
5.759297167E0,-5.592294592E-1,2.400574386E-1,-8.674617778E-1,1.059648573E0
5.769378167E0,-7.999432477E-1,1.714707685E-1,-1.037767927E0,1.321466494E0
5.779459167E0,-1.180287084E0,8.217150629E-2,-1.062001274E0,1.589866807E0
5.789540167E0,-1.342451717E0,1.595705152E-3,-7.604403359E-1,1.542870267E0
5.799620167E0,-1.369169692E0,-1.119332492E-1,-7.216788509E-1,1.551765143E0
5.809701167E0,-1.364066242E0,-1.590261394E-1,-7.866209516E-1,1.582636581E0
5.819782167E0,-1.265303261E0,-2.149904251E-1,-7.786503196E-1,1.501169393E0
5.829863167E0,-1.192606875E0,-3.182545924E-1,-7.423870575E-1,1.440394282E0
5.839943167E0,-1.132576436E0,-3.027068460E-1,-7.253764839E-1,1.378597788E0
5.850024167E0,-1.089347386E0,-1.928516972E-1,-5.883276893E-1,1.252995999E0
5.860105167E0,-1.151610585E0,-1.153895384E-1,-4.266486682E-1,1.233511561E0
5.870186167E0,-1.252011663E0,-2.610489428E-2,-3.018049130E-1,1.288138531E0
5.880266167E0,-1.309797941E0,-4.483294129E-2,-1.256753755E-1,1.316576978E0
5.890347167E0,-1.335175149E0,-1.071057880E-1,4.969022334E-2,1.340385559E0
5.900428167E0,-1.243894266E0,-2.960807812E-1,2.281767735E-1,1.298846185E0
5.910509167E0,-1.047106515E0,-5.943782419E-1,3.961757576E-1,1.267545967E0
5.920589167E0,-7.232482436E-1,-7.875328249E-1,5.524341175E-1,1.203527908E0
5.930670167E0,-2.970552197E-1,-9.581405443E-1,5.503206414E-1,1.144171278E0
5.940751167E0,5.871657014E-2,-1.066771871E0,4.304731858E-1,1.151849393E0
5.950832167E0,2.709307373E-1,-1.127061342E0,3.368253493E-1,1.207113105E0
5.960912167E0,4.374591467E-1,-1.171871479E0,4.855872864E-1,1.341807841E0
5.970993167E0,5.321720535E-1,-1.213943365E0,8.245226035E-1,1.560994270E0
5.981074167E0,5.265034702E-1,-1.234565910E0,9.249575955E-1,1.630001670E0
5.991155167E0,4.841140804E-1,-1.307137458E0,7.208739817E-1,1.569278202E0
6.001235167E0,5.277296314E-1,-1.395898776E0,4.262275225E-1,1.551999310E0
6.011316167E0,5.984119436E-1,-1.357827555E0,3.428520745E-1,1.522937973E0
6.021397167E0,6.107130235E-1,-1.268559283E0,5.720129344E-1,1.519674915E0
6.031478167E0,5.942861483E-1,-1.142452383E0,8.570281523E-1,1.546890664E0
6.041558167E0,5.656236818E-1,-9.691005653E-1,1.157303434E0,1.611966902E0
6.051639167E0,5.621697316E-1,-8.396455497E-1,1.354925874E0,1.690225896E0
6.061720167E0,6.794353491E-1,-8.163286078E-1,1.381247408E0,1.742374584E0
6.071800167E0,7.909742036E-1,-8.499185228E-1,1.455391272E0,1.861764067E0
6.081881167E0,8.581519872E-1,-9.738028961E-1,1.507118080E0,1.989000207E0
6.091962167E0,8.228081998E-1,-1.178420945E0,1.448110904E0,2.040273131E0
6.102043167E0,7.509532285E-1,-1.416617800E0,1.223918423E0,2.017105116E0
6.112124167E0,7.123411399E-1,-1.688943098E0,1.072079973E0,2.123514577E0
6.122204167E0,6.101952526E-1,-2.048005993E0,1.406844179E0,2.558491223E0
6.132285167E0,4.451514512E-1,-2.317381371E0,1.399098665E0,2.743336164E0
6.142366167E0,3.160402519E-1,-2.232182761E0,6.997792742E-1,2.360553400E0
6.152446167E0,1.155386424E-1,-1.313693356E0,2.215933934E-1,1.337252049E0
6.162527167E0,-1.675081104E-1,9.112593234E-1,3.116396374E-1,9.775335212E-1
6.172608167E0,-2.149953952E-1,4.281463448E0,-1.002427356E0,4.402500753E0
6.182689167E0,-1.456886405E-1,7.516319733E0,-3.231560794E0,8.182864576E0
6.192769167E0,-5.096433163E-1,9.838058449E0,-3.686027152E0,1.051826633E1
6.202850167E0,-7.323544049E-1,1.195944115E1,-3.374215899E0,1.244788772E1
6.212931167E0,-1.175541192E0,7.930408435E0,-2.791263409E0,8.489076891E0
6.223011917E0,-2.664382922E0,3.539261162E-1,-8.335448572E-1,2.814071264E0
6.233091917E0,-3.569058281E0,-2.207978797E0,-2.507642752E-1,4.204310895E0
6.243172917E0,-3.608739533E0,-3.187523074E0,-1.324547542E0,4.993769173E0
6.253253917E0,-3.056639876E0,-3.827758105E0,-1.860196058E0,5.239762286E0
6.263334917E0,-1.989806902E0,-3.695223945E0,-1.315610950E0,4.398277354E0
6.273414917E0,-7.308332518E-1,-2.960032471E0,-1.301138507E0,3.314946589E0
6.283495917E0,2.783549470E-1,-1.667918265E0,-2.487756371E0,3.008049963E0
6.293576917E0,8.785868365E-1,3.468556631E-1,-3.893791296E0,4.006723641E0
6.303657917E0,8.124551198E-1,2.493169724E0,-4.754920393E0,5.430031909E0
6.313737917E0,1.265764314E-1,3.388155661E0,-4.099738417E0,5.320101077E0
6.323818917E0,-6.569180140E-1,3.432831312E0,-2.025634839E0,4.039686695E0
6.333899917E0,-1.122221309E0,3.568594304E0,4.624328971E-2,3.741174203E0
6.343980917E0,-8.514186260E-1,2.775933471E0,1.255447779E0,3.163363627E0
6.354060917E0,-2.880636638E-1,1.313555946E0,1.737121085E0,2.196815778E0
6.364141917E0,1.988196579E-1,6.091044545E-2,1.222878349E0,1.240431697E0
6.374222917E0,4.914093590E-1,-8.037606025E-1,1.282338247E-1,9.507671523E-1
6.384303917E0,4.919224522E-1,-1.247415751E0,-6.492900288E-1,1.489835997E0
6.394383917E0,2.940672925E-1,-1.430602586E0,-1.377726215E0,2.007792034E0
6.404464917E0,1.242843229E-1,-1.541252956E0,-2.151949169E0,2.649866504E0
6.414545917E0,-2.143881619E-2,-1.348509432E0,-2.387989424E0,2.742522707E0
6.424626917E0,2.449515581E-2,-1.065180843E0,-1.955951231E0,2.227320242E0
6.434706917E0,1.291111994E-1,-7.991804785E-1,-1.139099882E0,1.397464733E0
6.444787917E0,1.571380734E-1,-6.580392176E-1,-4.695805335E-1,8.235374087E-1
6.454868917E0,5.688142151E-2,-5.273428380E-1,-1.863982715E-1,5.622012812E-1
6.464949917E0,-3.221698880E-2,-2.541334409E-1,-6.343702734E-2,2.639052795E-1
6.475029917E0,3.746837318E-2,-4.972998440E-2,-2.878129645E-1,2.944711410E-1
6.485110917E0,1.298350847E-1,4.812901676E-2,-2.586065608E-1,2.933443450E-1
6.495191917E0,2.734973726E-1,1.892808026E-1,6.605453342E-3,3.326735142E-1
6.505272917E0,4.167047471E-1,1.298368388E-1,2.777309029E-1,5.173344231E-1
6.515352917E0,6.289756322E-1,3.472719848E-2,5.166112970E-1,8.146800331E-1
6.525433917E0,8.216580525E-1,-1.572398150E-1,5.496616602E-1,1.000986641E0
6.535514917E0,8.830178565E-1,-4.109680438E-1,9.959650129E-1,1.393040407E0
6.545594917E0,8.818054363E-1,-7.654344428E-1,1.567791860E0,1.954850897E0
6.555675917E0,9.316900796E-1,-1.034028633E0,1.811263341E0,2.284280304E0
6.565756917E0,8.262580571E-1,-1.112504699E0,2.484079058E0,2.844471453E0
6.575837917E0,8.094666079E-1,-1.124349403E0,2.255958856E0,2.647404036E0
6.585918917E0,1.191449127E0,-1.381154437E0,8.323583110E-1,2.004983531E0
6.595998917E0,1.766692355E0,-1.727279783E0,7.204664308E-1,2.573668433E0
6.606079917E0,2.171008022E0,-1.929431477E0,1.582000448E0,3.307371626E0
6.616160917E0,2.313197104E0,-2.089173315E0,1.744892181E0,3.572138674E0
6.626240917E0,2.132627775E0,-2.074334836E0,1.422739104E0,3.297749657E0
6.636321917E0,1.725759799E0,-2.054414542E0,1.310936978E0,2.986205243E0
6.646402917E0,1.312840247E0,-2.076647410E0,1.277008510E0,2.768892326E0
6.656483917E0,1.031388322E0,-1.624665241E0,9.607292528E-1,2.150883473E0
6.666563917E0,1.128290427E0,-6.288838309E-1,-2.341038036E-1,1.312759975E0
6.676644917E0,1.075691214E0,9.045198226E-1,-1.778768025E0,2.266998761E0
6.686725917E0,6.746315691E-1,2.658010919E0,-3.002056995E0,4.066017216E0
6.696806917E0,6.174960861E-1,3.442604933E0,-2.787033826E0,4.472179300E0
6.706886917E0,1.405364541E0,2.861924964E0,-1.727212686E0,3.626145013E0
6.716967917E0,2.478000000E0,3.265244849E0,-1.464348037E0,4.352771887E0
6.727048917E0,2.159667347E0,3.627443022E0,-6.779957646E-1,4.275767087E0
6.737129917E0,9.972701114E-1,3.595492081E0,4.688448076E-1,3.760575280E0
6.747209917E0,-1.164508080E-1,3.418717888E0,4.361817493E-1,3.448397788E0
6.757290917E0,-9.350320557E-1,3.593610447E0,-3.153111041E-4,3.713262863E0
6.767371917E0,-1.332926018E0,3.414854633E0,-2.932111140E-1,3.677485104E0
6.777452917E0,-1.330253255E0,2.824606864E0,-4.127235241E-1,3.149336179E0
6.787532917E0,-1.342401431E0,1.943129749E0,-4.911485732E-2,2.362246196E0
6.797613917E0,-1.261610744E0,1.118602760E0,3.925392281E-1,1.731190587E0
6.807694917E0,-7.465602154E-1,5.953839630E-1,4.109129338E-1,1.039559357E0
6.817775917E0,-2.387301207E-1,1.902701515E-1,1.348350388E-1,3.337293645E-1
6.827855917E0,-1.263328949E-1,-2.453772354E-1,-5.129458237E-1,5.824803911E-1
6.837936917E0,-2.917368847E-1,-4.469488853E-1,-1.001864854E0,1.135168226E0
6.848017917E0,-5.906386551E-1,-4.468307716E-1,-1.077871640E0,1.307791662E0
6.858098917E0,-9.400518903E-1,-4.524119389E-1,-8.759101273E-1,1.362201406E0
6.868178917E0,-1.305842592E0,-5.791509229E-1,-6.173941983E-1,1.556218578E0
6.878259917E0,-1.438037613E0,-6.140307337E-1,-5.615613288E-1,1.661426208E0
6.888340917E0,-1.409418416E0,-7.050479078E-1,-5.331625718E-1,1.663675194E0
6.898421917E0,-1.362043105E0,-8.242697114E-1,-4.831744328E-1,1.663742621E0
6.908501917E0,-1.314623356E0,-9.628995931E-1,-4.931157227E-1,1.702519694E0
6.918582917E0,-1.308451035E0,-1.027913030E0,-5.653491551E-1,1.757347141E0
6.928663917E0,-1.354857169E0,-9.263632661E-1,-7.266833366E-1,1.794952791E0
6.938743917E0,-1.318472578E0,-6.011984342E-1,-8.285375941E-1,1.669216595E0
6.948824917E0,-1.150790513E0,-2.066768539E-1,-7.967217243E-1,1.414849685E0
6.958905917E0,-9.003808710E-1,2.565220284E-1,-6.359349883E-1,1.131769664E0
6.968986917E0,-6.189321622E-1,6.282219261E-1,-3.296072540E-1,9.414779614E-1
6.979066917E0,-3.358962268E-1,7.914890510E-1,5.823008180E-2,8.617841582E-1
6.989147917E0,-1.227269170E-1,7.260183620E-1,3.683194761E-1,8.233005494E-1
6.999228917E0,4.733964264E-2,5.358218855E-1,4.568913446E-1,7.057590492E-1
7.009309917E0,1.243840179E-1,2.104927468E-1,6.093403897E-1,6.565624805E-1
7.019389917E0,3.860974967E-2,-1.200386596E-1,6.561935440E-1,6.681990420E-1
7.029470917E0,1.473615289E-2,-4.256316912E-1,6.167026189E-1,7.494675516E-1
7.039551917E0,-8.566521764E-2,-8.339053380E-1,4.953787413E-1,9.737231330E-1
7.049632917E0,-1.351025489E-1,-1.133681560E0,3.410370988E-1,1.191550620E0
7.059712917E0,-1.136444369E-1,-1.292153968E0,2.569743106E-1,1.322351213E0
7.069793917E0,-4.639794856E-2,-1.375797803E0,-3.191527247E-2,1.376949871E0
7.079874917E0,5.465626359E-2,-1.343867912E0,-1.628487566E-1,1.354801827E0
7.089955917E0,1.588711882E-1,-1.292938079E0,2.120346576E-2,1.302834801E0
7.100035917E0,1.957317433E-1,-1.290592761E0,4.062040249E-1,1.367092645E0
7.110116917E0,1.366435826E-1,-1.355557666E0,6.631493917E-1,1.515247561E0
7.120197917E0,1.424405122E-1,-1.401549525E0,6.754428703E-1,1.562323092E0
7.130278917E0,2.533414355E-1,-1.380309514E0,5.603144100E-1,1.511088507E0
7.140358917E0,4.119530073E-1,-1.294975834E0,5.544458520E-1,1.467677721E0
7.150439917E0,5.309534937E-1,-1.188773441E0,6.979686838E-1,1.477245474E0
7.160520917E0,5.787828407E-1,-1.141418595E0,9.218223184E-1,1.577207143E0
7.170601917E0,5.855474845E-1,-1.130310055E0,1.066231588E0,1.660516931E0
7.180681917E0,5.593507889E-1,-1.042449208E0,1.099149950E0,1.614838775E0
7.190762917E0,5.271039793E-1,-9.325098592E-1,1.140000061E0,1.564293253E0
7.200843917E0,3.858899206E-1,-9.213779300E-1,1.358575999E0,1.686290919E0
7.210924917E0,3.191392761E-1,-1.021900338E0,1.667363949E0,1.981472361E0
7.221008417E0,1.970751411E-1,-1.314483315E0,1.776522694E0,2.218724381E0
7.231089417E0,9.170714557E-2,-1.583954587E0,1.664452620E0,2.299505351E0
7.241170417E0,4.642776936E-2,-1.696510565E0,1.395076365E0,2.196939166E0
7.251250417E0,-2.537048399E-2,-1.866070463E0,8.965907058E-1,2.070443800E0
7.261331417E0,-1.888752982E-1,-2.098196738E0,6.465041229E-1,2.203649476E0
7.271412417E0,-4.837518454E-1,-2.418680874E0,9.711412436E-1,2.650876899E0
7.281493417E0,-9.116478708E-1,-2.366920152E0,1.153521747E0,2.786400055E0
7.291573417E0,-1.481818348E0,-1.807381960E0,1.073003541E0,2.571721556E0
7.301654417E0,-2.137678016E0,4.703441799E-2,9.566992056E-1,2.342467269E0
7.311735417E0,-2.194651531E0,4.000684245E0,-2.310041946E-1,4.568953131E0
7.321816417E0,-1.325029938E0,8.937769672E0,-2.046896192E0,9.264405813E0
7.331896417E0,-7.659618616E-2,1.209068308E1,-3.397163589E0,1.255910843E1
7.341977417E0,1.163767238E0,1.295325264E1,-3.659664103E0,1.351052365E1
7.352058417E0,1.520010021E0,8.175808475E0,-3.208518964E0,8.913409484E0
7.362139417E0,-9.608749947E-1,1.521451360E0,-1.999399551E0,2.689924453E0
7.372219417E0,-2.383890233E0,-1.160778726E0,-7.265574753E-1,2.749222738E0
7.382300417E0,-2.369180685E0,-2.879617469E0,-8.554116896E-1,3.825825799E0
7.392381417E0,-2.196655079E0,-4.010167260E0,-1.530957763E0,4.821884140E0
7.402462417E0,-1.721044604E0,-4.436867237E0,-1.786270587E0,5.083163191E0
7.412542417E0,-1.105994409E0,-4.244228963E0,-1.512607154E0,4.639470177E0
7.422623417E0,-7.607362050E-1,-3.323039898E0,-1.455639778E0,3.706777698E0
7.432704417E0,-6.806933776E-1,-1.755610127E0,-2.134332677E0,2.846205609E0
7.442785417E0,-9.076287872E-1,8.379060030E-3,-2.975729322E0,3.111081037E0
7.452865417E0,-1.115528294E0,1.774975521E0,-3.153166004E0,3.786475581E0
7.462946417E0,-9.261378559E-1,3.096559110E0,-2.647815129E0,4.178197531E0
7.473027417E0,-6.181281701E-1,3.539492127E0,-1.559715832E0,3.916988694E0
7.483107417E0,-4.053766438E-1,3.380544925E0,-2.191349316E-1,3.411808074E0
7.493188417E0,-6.899363637E-2,2.510963970E0,9.014728385E-1,2.668773775E0
7.503269417E0,3.168614933E-1,1.413688930E0,1.345075947E0,1.976903361E0
7.513350417E0,5.272083521E-1,9.023364723E-2,4.010488272E-1,6.685289219E-1
7.523430417E0,5.302266848E-1,-1.025434980E0,-7.011887455E-1,1.350674976E0
7.533511417E0,4.808007556E-1,-1.696774859E0,-1.154231160E0,2.107715318E0
7.543592417E0,6.740222892E-1,-2.095004159E0,-1.452536661E0,2.636894238E0
7.553673417E0,9.110704583E-1,-2.121684419E0,-1.377854269E0,2.688880164E0
7.563753417E0,1.012244246E0,-1.994055489E0,-1.038934739E0,2.465822601E0
7.573834417E0,7.802697060E-1,-1.653540546E0,-4.592952812E-1,1.885197419E0
7.583915417E0,4.127210391E-1,-1.011259575E0,-3.756245488E-1,1.155023110E0
7.593996417E0,3.326656401E-2,-4.476908970E-1,-1.081354827E-1,4.617651851E-1
7.604076417E0,-3.525359407E-1,-2.941482764E-1,3.532770753E-1,5.793181250E-1
7.614157417E0,-4.300790834E-1,-1.705761445E-1,2.976145059E-1,5.501260157E-1
7.624238417E0,-4.279679462E-1,-1.774320048E-1,5.441746330E-1,7.146780468E-1
7.634319417E0,-2.848129043E-1,-2.011062115E-1,5.840057930E-1,6.801653218E-1
7.644399417E0,-6.709855378E-2,-2.859335232E-1,6.571880092E-1,7.198307266E-1
7.654480417E0,1.341029674E-1,-4.720761251E-1,1.103513435E0,1.207717424E0
7.664561417E0,3.592388964E-1,-6.579029775E-1,1.957413912E0,2.096033906E0
7.674642417E0,8.012544858E-1,-9.668721914E-1,1.494079959E0,1.951698109E0
7.684722417E0,1.262695403E0,-1.306675528E0,1.434958761E0,2.315363311E0
7.694803417E0,1.646798122E0,-1.562156752E0,1.924778262E0,2.976079490E0
7.704884417E0,1.749720812E0,-1.821532221E0,2.284578491E0,3.405701313E0
7.714964417E0,1.811191713E0,-1.943581738E0,2.425353132E0,3.597257735E0
7.725045417E0,1.753254284E0,-1.917040057E0,3.039910700E0,3.998749833E0
7.735126417E0,1.746417720E0,-2.044511113E0,3.201282742E0,4.180695126E0
7.745207417E0,1.965973358E0,-2.138674089E0,2.728346491E0,3.985329683E0
7.755287417E0,2.329276947E0,-2.056346462E0,2.440234880E0,3.950802214E0
7.765368417E0,2.552261393E0,-1.848660963E0,1.999803302E0,3.732398534E0
7.775449417E0,2.758272834E0,-1.433387614E0,5.160740110E-1,3.151031809E0
7.785530417E0,2.639021209E0,-4.184413701E-1,-1.322779929E0,2.981488364E0
7.795610417E0,1.780856650E0,1.331816216E0,-2.132092463E0,3.080747168E0
7.805691417E0,9.544965595E-1,2.952185508E0,-2.119314542E0,3.757387002E0
7.815772417E0,1.237230779E0,3.907418817E0,-1.570919974E0,4.389356601E0
7.825853417E0,2.241270212E0,4.115946899E0,-1.356631215E0,4.879012122E0
7.835933417E0,2.086662521E0,4.639169204E0,-4.910796126E-1,5.110500031E0
7.846014417E0,1.219288305E0,4.430883781E0,4.647062580E-1,4.619020130E0
7.856095417E0,1.189750510E-1,3.691798646E0,9.472483510E-1,3.813241632E0
7.866176417E0,-1.206115698E0,3.409112667E0,5.894735974E-1,3.663910940E0
7.876256417E0,-2.151140937E0,3.296757833E0,-1.888638230E-1,3.941026400E0
7.886337417E0,-2.675643783E0,2.826468033E0,-4.252182931E-1,3.915201373E0
7.896418417E0,-2.655643674E0,2.071327028E0,-3.300483533E-1,3.384046527E0
7.906499417E0,-2.072146223E0,8.528988487E-1,-1.201678830E-1,2.244029130E0
7.916579417E0,-1.059435662E0,2.299891180E-1,-1.377720952E-2,1.084199579E0
7.926660417E0,1.938021621E-1,-2.271643281E-3,-1.870541098E-1,2.693579002E-1
7.936741417E0,9.483157602E-1,-6.251024365E-2,-6.434404743E-1,1.147704646E0
7.946822417E0,9.861089462E-1,-8.595991731E-3,-9.746437258E-1,1.386511860E0
7.956902417E0,7.312443110E-1,2.496784472E-1,-8.478497779E-1,1.147129816E0
7.966983417E0,1.133868670E-1,5.912961745E-1,-4.866986959E-1,7.741856161E-1
7.977064417E0,-6.874577290E-1,9.847050297E-1,-2.057978712E-1,1.218439530E0
7.987144417E0,-1.272137194E0,1.095140222E0,4.271624923E-2,1.679133653E0
7.997225417E0,-1.481201759E0,7.820341033E-1,1.692973584E-1,1.683507524E0
8.007306417E0,-1.437876522E0,4.719252670E-1,3.263939166E-1,1.548139315E0
8.017387417E0,-1.351747035E0,-2.090607637E-1,9.459976315E-2,1.371085543E0
8.027467417E0,-1.348194267E0,-8.442221653E-1,-4.130356193E-1,1.643452850E0
8.037548417E0,-1.435048516E0,-1.182497624E0,-6.072216511E-1,1.956114263E0
8.047629417E0,-1.180670954E0,-1.416475128E0,-8.921786892E-1,2.048503967E0
8.057710417E0,-5.887912273E-1,-1.813968848E0,-1.162049911E0,2.233275193E0
8.067790417E0,1.031966320E-1,-1.974184311E0,-7.302014601E-1,2.107426727E0
8.077871417E0,6.240516919E-1,-1.682031689E0,1.104141426E-1,1.797459986E0
8.087952417E0,7.951429760E-1,-1.206984009E0,7.933753628E-1,1.648789622E0
8.098033417E0,8.170381674E-1,-9.453129226E-1,1.074184678E0,1.647738029E0
8.108113417E0,6.841543445E-1,-9.926250833E-1,9.267556143E-1,1.520607672E0
8.118194417E0,3.986581931E-1,-1.181870803E0,7.138529375E-1,1.437126635E0
8.128275417E0,9.986488849E-2,-1.357635766E0,7.733629748E-1,1.565643050E0
8.138356417E0,-1.545053646E-1,-1.507677659E0,1.145927968E0,1.900030194E0
8.148436417E0,-4.421410123E-1,-1.672413020E0,1.367168190E0,2.204904270E0
8.158517417E0,-7.651555306E-1,-1.769448733E0,1.356541167E0,2.357247493E0
8.168598417E0,-7.832336596E-1,-1.925865260E0,1.111154284E0,2.357345076E0
8.178679417E0,-5.003658316E-1,-2.045965315E0,7.584075513E-1,2.238642904E0
8.188759417E0,-3.961488605E-3,-1.927152817E0,6.845542940E-1,2.045127931E0
8.198840417E0,4.892151913E-1,-1.689250077E0,1.065856197E0,2.056440312E0
8.208921417E0,8.643667004E-1,-1.595929100E0,1.639724160E0,2.445979314E0
8.218999292E0,9.734672660E-1,-1.582721994E0,2.151647014E0,2.842926714E0
8.229079292E0,7.252310345E-1,-1.873412227E0,2.458788096E0,3.175101939E0
8.239160292E0,1.743142694E-1,-2.257262639E0,2.673827345E0,3.503565720E0
8.249241292E0,-5.376766223E-1,-2.631842875E0,2.680649876E0,3.794940952E0
8.259321292E0,-1.418767236E0,-2.983786785E0,2.385510204E0,4.075112635E0
8.269402292E0,-2.075815059E0,-3.271575045E0,1.829511917E0,4.284778324E0
8.279483292E0,-2.421350713E0,-3.259788812E0,1.204850068E0,4.235661231E0
8.289564292E0,-2.928315712E0,-1.681161039E0,9.000461179E-1,3.494483991E0
8.299644292E0,-3.347369578E0,2.637081395E0,-1.122519225E-2,4.261362151E0
8.309725292E0,-2.350710208E0,8.457932537E0,-2.915070599E0,9.249870155E0
8.319806292E0,-8.838890916E-1,1.364410818E1,-3.359480623E0,1.407938415E1
8.329887292E0,1.128153894E0,1.742811742E1,-3.500653459E0,1.781197863E1
8.339967292E0,3.919216451E0,1.497201553E1,-4.019982103E0,1.599005200E1
8.350048292E0,3.025470708E0,3.263431043E0,-2.432557194E0,5.071566788E0
8.360129292E0,-5.337426156E-1,-3.308337659E0,-1.706131281E0,3.760433910E0
8.370210292E0,-2.474189662E0,-4.570297775E0,-2.613688440E0,5.817267700E0
8.380290292E0,-2.714798493E0,-5.116582083E0,-3.231896424E0,6.632849883E0
8.390371292E0,-2.089390832E0,-4.905003508E0,-3.109275927E0,6.171888710E0
8.400452292E0,-1.317514804E0,-3.988765281E0,-2.613091147E0,4.947154643E0
8.410533292E0,-5.380104983E-1,-2.329074048E0,-2.318224832E0,3.329896033E0
8.420613292E0,1.973435283E-4,-1.796176940E-1,-2.632624063E0,2.638744401E0
8.430694292E0,-4.553735536E-1,2.047046465E0,-3.485963207E0,4.068132715E0
8.440775292E0,-1.455310288E0,3.161583656E0,-3.796076429E0,5.150119950E0
8.450856292E0,-2.083451230E0,3.302540730E0,-2.915027037E0,4.872876658E0
8.460936292E0,-2.301007998E0,2.784210790E0,-1.703779238E0,3.993661381E0
8.471017292E0,-2.450458737E0,1.984215209E0,-7.316515696E-1,3.236846002E0
8.481098292E0,-2.253142691E0,1.074738117E0,-3.846163970E-1,2.525795672E0
8.491178292E0,-1.773894663E0,2.028586221E-1,-4.574633485E-1,1.843129570E0
8.501259292E0,-1.233917162E0,-3.997337884E-1,-6.941055746E-1,1.471095242E0
8.511340292E0,-7.867925674E-1,-5.691024828E-1,-1.041932460E0,1.424269438E0
8.521421292E0,-3.688675064E-1,-4.325711668E-1,-1.330329269E0,1.446705573E0
8.531501292E0,-3.439449191E-2,-3.526572704E-1,-1.814133593E0,1.848413056E0
8.541582292E0,3.846321845E-1,-4.708213127E-1,-2.514476393E0,2.586929871E0
8.551663292E0,3.062771559E-1,-5.298267353E-1,-1.890128393E0,1.986732848E0
8.561744292E0,-3.387008438E-1,-2.521734542E-1,-4.161646105E-1,5.928766276E-1
8.571824292E0,-1.450954404E-1,-4.462752861E-1,-1.019780284E0,1.122571220E0
8.581905292E0,-7.985980958E-2,-5.878831547E-1,-8.830893387E-1,1.063875450E0
8.591986292E0,2.905598402E-2,-3.910489190E-1,2.122831643E-2,3.927010933E-1
8.602067292E0,5.244455427E-1,-1.429714394E-1,6.821434870E-2,5.478477499E-1
8.612147292E0,1.027495539E0,-5.084914148E-2,-3.077465612E-1,1.073797310E0
8.622228292E0,1.556147568E0,-3.293549466E-1,2.356299269E-1,1.607977424E0
8.632309292E0,1.973106377E0,-6.620200020E-1,8.127040650E-1,2.234257629E0
8.642390292E0,2.046975714E0,-8.884943587E-1,1.621161736E0,2.758205426E0
8.652470292E0,1.844622291E0,-1.123945361E0,1.758908688E0,2.785613818E0
8.662551292E0,1.646104057E0,-1.283967866E0,1.336390493E0,2.478743956E0
8.672632292E0,1.441997640E0,-1.203882646E0,1.283312685E0,2.274990564E0
8.682713292E0,1.314694984E0,-9.619786566E-1,1.218373801E0,2.034271505E0
8.692793292E0,1.304325824E0,-8.307074958E-1,1.066637385E0,1.878578215E0
8.702874292E0,1.418703209E0,-7.125715202E-1,1.149386523E0,1.959991415E0
8.712955292E0,1.681323591E0,-7.259405941E-1,1.131389451E0,2.152645083E0
8.723035292E0,1.851371148E0,-7.970515072E-1,1.281733645E0,2.388662255E0
8.733116292E0,1.755072476E0,-8.583034301E-1,1.583090953E0,2.514585680E0
8.743197292E0,1.570946286E0,-1.143759236E0,1.660079488E0,2.555762377E0
8.753278292E0,1.480824321E0,-1.357832233E0,1.525844958E0,2.522845988E0
8.763358292E0,1.432091579E0,-1.523720080E0,1.387465337E0,2.509515737E0
8.773439292E0,1.337766343E0,-1.697839637E0,1.252445526E0,2.498178940E0
8.783520292E0,1.448072604E0,-1.416514889E0,2.883232802E-1,2.046108260E0
8.793601292E0,1.694553794E0,-3.362488139E-1,-1.192755395E0,2.099343054E0
8.803681292E0,1.406565559E0,1.859790553E0,-2.170266010E0,3.185483029E0
8.813762292E0,7.777992573E-1,3.946589899E0,-2.519071135E0,4.746184036E0
8.823843292E0,4.250861460E-1,4.881132835E0,-2.372749826E0,5.443904639E0
8.833924292E0,1.303765953E0,4.255337504E0,-2.203938371E0,4.966391776E0
8.844004292E0,2.596627726E0,2.252214738E0,-2.134609104E0,4.046171376E0
8.854085292E0,2.307292001E0,1.646315142E0,-1.174434387E0,3.068101376E0
8.864166292E0,1.176300745E0,8.710480213E-1,-5.085242323E-1,1.549517665E0
8.874247292E0,-2.952598321E-1,1.003469914E-1,-4.059417772E-1,5.118951198E-1
8.884327292E0,-1.748147911E0,1.674981701E-1,-3.687652532E-1,1.794453835E0
8.894408292E0,-2.508733842E0,7.919650143E-1,-7.916084073E-1,2.747289200E0
8.904489292E0,-2.778850940E0,1.384343508E0,-8.208870971E-1,3.211273131E0
8.914570292E0,-2.559876806E0,1.782048898E0,6.731314659E-2,3.119807462E0
8.924650292E0,-1.555623658E0,1.879099814E0,1.191570603E0,2.714925703E0
8.934731292E0,-3.122135416E-1,1.356797860E0,1.434035340E0,1.998708354E0
8.944812292E0,4.741746908E-1,7.416093779E-1,6.581870060E-1,1.099107020E0
8.954892292E0,7.878093982E-1,1.814250684E-1,-1.123878703E-2,8.085078934E-1
8.964973292E0,6.434559694E-1,-3.639043897E-1,-2.632336088E-1,7.846998931E-1
8.975054292E0,3.357845449E-1,-6.898240972E-1,-3.744119824E-1,8.536936677E-1
8.985135292E0,7.455141485E-2,-8.944357145E-1,-2.658367892E-1,9.360781801E-1
8.995215292E0,-2.115338436E-1,-9.446726525E-1,-1.480807364E-1,9.793267544E-1
9.005296292E0,-7.732621104E-1,-3.187328947E-1,1.111099613E-1,8.437241095E-1
9.015377292E0,-1.841573553E0,1.359040267E0,5.066360933E-1,2.344155228E0
9.025458292E0,-1.859015797E0,1.997730464E-1,4.368872890E-1,1.920083203E0
9.035538292E0,-8.252692929E-1,-1.719515850E0,-6.485526949E-1,2.014553241E0
9.045619292E0,-6.521227124E-1,-1.662085667E0,-1.583898161E0,2.386739655E0
9.055700292E0,-9.989418304E-1,-7.513227725E-1,-1.273481762E0,1.784412084E0
9.065781292E0,-9.640883321E-1,-5.835246402E-1,-8.307846791E-1,1.400060892E0
9.075861292E0,-7.770522755E-1,-3.621718597E-1,-3.370276630E-2,8.579711950E-1
9.085942292E0,-6.627023721E-1,-8.425837755E-3,2.823320769E-1,7.203865839E-1
9.096023292E0,-5.465208283E-1,2.775679117E-1,6.898457319E-2,6.168369580E-1
9.106104292E0,-3.554346979E-1,3.271137089E-1,-8.459166884E-3,4.831239597E-1
9.116184292E0,-1.687830958E-1,3.710391623E-1,8.470305830E-2,4.163320807E-1
9.126265292E0,-3.059555590E-3,3.611333942E-1,2.641979608E-1,4.474675986E-1
9.136346292E0,4.745687932E-2,1.926195627E-1,6.234470898E-1,6.542482137E-1
9.146426292E0,-2.320906073E-2,-1.595366013E-1,8.000780261E-1,8.161589523E-1
9.156507292E0,-1.856026116E-1,-6.300094199E-1,4.985789225E-1,8.245854356E-1
9.166588292E0,-3.721811235E-1,-9.189279467E-1,1.481956342E-1,1.002451648E0
9.176669292E0,-3.591123042E-1,-9.694332719E-1,-7.083697110E-2,1.036233754E0
9.186749292E0,-3.305626890E-1,-1.024344474E0,-1.550251821E-1,1.087467747E0
9.196830292E0,-3.513939795E-1,-9.276993549E-1,-1.556093189E-1,1.004150428E0
9.206911292E0,-3.982097116E-1,-8.727355278E-1,-1.256859004E-3,9.592913298E-1
9.216992292E0,-4.052930287E-1,-1.036617195E0,1.100273493E-1,1.118455929E0
9.227071542E0,-7.069254488E-2,-9.754097110E-1,3.644221607E-1,1.043659452E0
9.237152542E0,3.693276823E-1,-1.099132116E0,6.396105480E-1,1.324234118E0
9.247233542E0,8.595398238E-1,-1.103431574E0,8.930528480E-1,1.659491891E0
9.257314542E0,9.438432249E-1,-1.238366016E0,9.120446044E-1,1.804498762E0
9.267394542E0,8.234519783E-1,-1.440192019E0,7.743888688E-1,1.830820672E0
9.277475542E0,5.978055874E-1,-1.624630158E0,6.966907749E-1,1.866058066E0
9.287556542E0,2.369785872E-1,-1.731362894E0,6.088147250E-1,1.850522005E0
9.297637542E0,-2.340663815E-1,-1.808781198E0,4.868137398E-1,1.887713991E0
9.307717542E0,-5.701266226E-1,-1.773286260E0,4.873277101E-1,1.925377060E0
9.317798542E0,-7.798156697E-1,-1.658369762E0,5.115997946E-1,1.902639507E0
9.327879542E0,-8.411289883E-1,-1.552572581E0,4.373588669E-1,1.819137810E0
9.337959542E0,-7.611411247E-1,-1.501290745E0,5.684075412E-1,1.776596985E0
9.348040542E0,-5.975176120E-1,-1.361330622E0,7.888694984E-1,1.683022116E0
9.358121542E0,-4.767892733E-1,-6.089442408E-1,8.207181126E-1,1.127705334E0
9.368202542E0,-4.648144680E-1,1.490288624E0,7.157164451E-1,1.717341755E0
9.378282542E0,-2.746612608E-1,4.831927931E0,-1.408746278E-1,4.841777772E0
9.388363542E0,6.076134145E-3,8.021737851E0,-1.715286559E0,8.203080095E0
9.398444542E0,1.974192497E-1,9.917120991E0,-2.325636616E0,1.018807385E1
9.408525542E0,5.765953973E-1,1.040675630E1,-1.421114309E0,1.051915419E1
9.418605542E0,4.538044533E-1,6.222514511E0,-8.791652723E-1,6.300679083E0
9.428686542E0,-1.292144904E0,1.764596128E-1,2.307948643E-1,1.324402778E0
9.438767542E0,-2.185819311E0,-2.760151836E0,-4.051676059E-1,3.544066169E0
9.448848542E0,-2.467220365E0,-3.889359106E0,-1.859177473E0,4.966974075E0
9.458928542E0,-2.563238371E0,-4.637629048E0,-2.588319125E0,5.897218838E0
9.469009542E0,-2.379676145E0,-4.633088685E0,-2.521673146E0,5.786813006E0
9.479090542E0,-2.001175058E0,-3.792652007E0,-2.209763952E0,4.824102775E0
9.489170542E0,-1.385843904E0,-2.195828283E0,-2.443774346E0,3.565705853E0
9.499251542E0,-7.662021822E-1,-2.879168987E-2,-2.941446219E0,3.039736931E0
9.509332542E0,-1.987392586E-1,2.030573689E0,-3.222525092E0,3.814104714E0
9.519413542E0,5.892794698E-2,3.030291445E0,-3.039293818E0,4.292254147E0
9.529493542E0,-2.084438825E-1,3.456285079E0,-2.531249716E0,4.289123515E0
9.539574542E0,-6.544116050E-1,3.574244469E0,-1.453644124E0,3.913637606E0
9.549655542E0,-7.968798915E-1,3.297772325E0,1.669263124E-2,3.392727297E0
9.559736542E0,-5.090588871E-1,2.111357651E0,1.275096909E0,2.518500389E0
9.569816542E0,-2.370040226E-1,7.865826523E-1,1.367799543E0,1.595543407E0
9.579897542E0,-5.748076111E-2,-4.242681205E-2,9.811467066E-2,1.213695220E-1
9.589978542E0,6.122941107E-2,-8.295479929E-1,-7.989027357E-1,1.153318904E0
9.600059542E0,1.132196367E-1,-1.347238247E0,-1.182083203E0,1.795881477E0
9.610139542E0,1.713585019E-2,-1.581217505E0,-1.553138006E0,2.216479213E0
9.620220542E0,-8.009896070E-2,-1.558312792E0,-1.944545506E0,2.493193098E0
9.630301542E0,-5.722085238E-2,-1.509278042E0,-2.058287153E0,2.552986572E0
9.640381542E0,-4.145886397E-1,-1.109471163E0,-9.650009362E-1,1.527755481E0
9.650462542E0,-2.702770185E-1,-8.647160715E-1,-6.516936730E-1,1.116014424E0
9.660543542E0,2.933635801E-2,-6.695325047E-1,-3.460709667E-1,7.542542746E-1
9.670624542E0,1.312638518E-1,-3.373252863E-1,8.009749889E-2,3.707211309E-1
9.680704542E0,2.250336027E-1,7.560274422E-2,3.867048763E-2,2.405229800E-1
9.690785542E0,2.837145048E-1,2.974730033E-1,1.594839764E-1,4.409299793E-1
9.700866542E0,3.016958624E-1,3.379123467E-1,3.922160232E-1,5.991982613E-1
9.710947542E0,3.110718727E-1,3.548745346E-1,4.106101942E-1,6.255416668E-1
9.721027542E0,3.754090789E-1,2.226730818E-1,3.605615366E-1,5.661447690E-1
9.731108542E0,3.179634011E-1,2.842448473E-2,4.971313711E-1,5.908030771E-1
9.741189542E0,2.482818398E-1,-1.204853868E-1,6.160515314E-1,6.750408060E-1
9.751270542E0,3.184191915E-1,-2.492972088E-1,7.055460175E-1,8.132250996E-1
9.761350542E0,3.105049852E-1,-3.879674363E-1,1.177136970E0,1.277725919E0
9.771431542E0,4.479382342E-1,-5.804700547E-1,1.313737795E0,1.504493649E0
9.781512542E0,5.892443866E-1,-8.241147602E-1,1.787509028E0,2.054644156E0
9.791592542E0,9.163540024E-1,-1.014352167E0,1.950503672E0,2.381822737E0
9.801673542E0,1.162259534E0,-1.190227643E0,1.947757820E0,2.561493625E0
9.811754542E0,1.362484570E0,-1.313435494E0,2.047588502E0,2.788206533E0
9.821835542E0,1.746682306E0,-1.488120477E0,1.810433621E0,2.922853320E0
9.831915542E0,2.204652608E0,-1.606064079E0,1.695324165E0,3.211550867E0
9.841996542E0,2.624962456E0,-1.609676489E0,1.550011500E0,3.447320981E0
9.852077542E0,2.825377819E0,-1.491191434E0,1.534269041E0,3.544064504E0
9.862158542E0,2.743807114E0,-1.560538827E0,1.643635948E0,3.558833803E0
9.872238542E0,2.431148307E0,-1.620289185E0,1.626644524E0,3.343918591E0
9.882319542E0,2.029166557E0,-1.469608192E0,1.590826235E0,2.967826353E0
9.892400542E0,1.829366321E0,-9.351931465E-1,1.051939239E0,2.308190529E0
9.902481542E0,1.854522505E0,1.601716089E-1,-2.817773223E-1,1.882633029E0
9.912561542E0,1.564616091E0,2.049168420E0,-1.523891988E0,2.994889232E0
9.922642542E0,1.372402032E0,4.193340061E0,-1.853720559E0,4.785798587E0
9.932723542E0,1.875214631E0,5.131636325E0,-1.147610797E0,5.582753068E0
9.942803542E0,2.634037043E0,4.228720978E0,-9.123697096E-1,5.064844592E0
9.952884542E0,2.223254355E0,3.683714286E0,-3.129833275E-1,4.313996921E0
9.962965542E0,1.406479313E0,2.113583102E0,-1.206619819E-1,2.541648461E0
9.973046542E0,5.708092850E-1,7.149501675E-1,-3.190574151E-1,9.689038219E-1
9.983126542E0,-6.526635799E-1,1.838797295E-1,1.146960586E-1,6.877039256E-1
9.993207542E0,-1.637143199E0,4.012628353E-1,5.157565437E-1,1.762740631E0
1.000328854E1,-2.166072972E0,4.863070786E-1,4.306223629E-1,2.261371777E0
1.001336954E1,-2.266407099E0,4.913374382E-1,1.262893331E-1,2.322490606E0
1.002344954E1,-1.871237648E0,4.295306146E-2,4.062703542E-1,1.915314830E0
1.003353054E1,-1.217285634E0,-6.278319168E-1,4.710253805E-1,1.448386046E0
1.004361154E1,-3.476175553E-1,-1.077665234E0,-1.076922637E-1,1.137452392E0
1.005369154E1,5.669477838E-1,-1.117760176E0,-5.887935662E-1,1.384736605E0
1.006377254E1,9.479181495E-1,-7.458345759E-1,-8.431889623E-1,1.471660851E0
1.007385354E1,8.510356334E-1,2.281688797E-1,-9.397552903E-1,1.288201340E0
1.008393454E1,4.384993663E-1,1.411331917E0,-7.980976472E-1,1.679612851E0
1.009401454E1,-3.624981344E-3,2.651955543E0,-6.566709691E-1,2.732050165E0
1.010409554E1,-6.889095926E-1,3.523542677E0,-1.755638194E-1,3.594547549E0
1.011417654E1,-1.411753209E0,3.588802866E0,2.631346446E-1,3.865461548E0
1.012425754E1,-1.915687596E0,2.967088307E0,3.929188585E-1,3.553569644E0
1.013433754E1,-2.107974745E0,2.241457030E0,3.461341166E-1,3.096368190E0
1.014441854E1,-2.577011487E0,1.813726189E0,3.083244123E-1,3.166331447E0
1.015449954E1,-2.055713325E1,1.176408451E1,3.850925943E0,2.399622976E1
1.016458054E1,-1.537325381E0,-6.690939635E-1,-4.472903042E0,4.776810409E0
1.017466054E1,8.735829062E0,-1.075669813E1,5.833457154E-1,1.386944686E1
1.018474154E1,9.695075315E-1,-4.576083010E0,-3.032248801E0,5.574496691E0
1.019482254E1,-1.417775549E0,-2.016612293E0,-2.188160975E0,3.296188875E0
1.020490254E1,-4.868268961E-1,-7.157945055E-1,5.116755161E-1,1.005571496E0
1.021498354E1,1.804806261E0,-5.462416238E-1,6.681949541E-2,1.886841381E0
1.022506504E1,3.425751504E0,-1.495944636E0,-3.190133564E0,4.914323542E0
1.023514604E1,4.042735666E0,-2.678518274E0,-2.868634059E0,5.634468313E0
1.024522604E1,3.701950582E0,-2.912874092E0,-1.167437536E-1,4.711995617E0
1.025530704E1,1.693974627E0,-1.932122950E0,2.371290653E0,3.496522343E0
1.026538804E1,-5.292519540E-1,-1.152210217E0,3.906274809E0,4.106906244E0
1.027546904E1,-1.432202384E0,-1.782610230E0,2.580400826E0,3.447806741E0
1.028554904E1,-1.426565083E0,-2.704399804E0,3.306539056E-1,3.075418385E0
1.029563004E1,-1.379540606E0,-3.285774423E0,-3.630711615E-1,3.582075727E0
1.030571104E1,-1.352569446E0,-3.597216425E0,5.092252403E-2,3.843436381E0
1.031579104E1,-9.948853245E-1,-3.586447023E0,1.026228739E0,3.860769934E0
1.032587204E1,-1.769735831E-1,-3.250193532E0,2.066118329E0,3.855375804E0
1.033595304E1,5.588271707E-1,-2.832060310E0,2.346094124E0,3.719813307E0
1.034603404E1,9.123012972E-1,-2.403455894E0,2.310211515E0,3.456294423E0
1.035611404E1,7.969094199E-1,-2.142105820E0,2.104437472E0,3.106821372E0
1.036619504E1,3.091428763E-1,-1.986479836E0,1.617341019E0,2.580206083E0
1.037627604E1,-5.970939812E-1,-1.535139107E0,1.451046206E0,2.195155665E0
1.038635704E1,-1.458799029E0,9.015237093E-3,8.513201004E-1,1.689059441E0
1.039643704E1,-1.627622763E0,2.942302544E0,-4.959219477E-1,3.398858440E0
1.040651804E1,-1.419953344E0,6.709946594E0,-5.968539530E-1,6.884466968E0
1.041659904E1,-7.055311802E-1,1.010875998E1,2.773565349E-1,1.013714601E1
1.042667904E1,6.700909138E-1,1.155754565E1,-4.142255276E-1,1.158436300E1
1.043676004E1,7.716655281E-1,8.493626280E0,-3.264177732E0,9.131922653E0
1.044684104E1,-9.924169225E-1,8.592395693E-1,-4.272238880E0,4.469363382E0
1.045692204E1,-2.087588135E0,-2.854862112E0,-2.219024772E0,4.175204526E0
1.046700204E1,-1.931448181E0,-3.775568781E0,-1.077868717E0,4.375752812E0
1.047708304E1,-9.103275695E-1,-4.368950658E0,-1.438461828E0,4.688880310E0
1.048716404E1,7.401727170E-2,-4.035474009E0,-2.479502442E0,4.736925310E0
1.049724504E1,4.481952193E-1,-2.237965658E0,-2.784152025E0,3.600121073E0
1.050732504E1,3.059424028E-1,3.512498456E-1,-2.669631091E0,2.709964459E0
1.051740604E1,2.213551193E-2,2.461541550E0,-2.984295493E0,3.868552232E0
1.052748704E1,-5.811974484E-1,3.537226331E0,-3.150367819E0,4.772271785E0
1.053756704E1,-1.482689290E0,3.464283485E0,-2.419211217E0,4.477969463E0
1.054764804E1,-1.995170845E0,2.832093054E0,-1.557025235E0,3.798129191E0
1.055772904E1,-1.789554676E0,2.249684063E0,-7.262148285E-1,2.964957385E0
1.056781004E1,-1.252825595E0,1.395944384E0,-5.508164853E-2,1.876503846E0
1.057789004E1,-8.065532327E-1,4.831256086E-1,-1.424666785E-1,9.509128379E-1
1.058797104E1,-4.218967822E-1,-2.071814686E-1,-8.367308588E-1,9.597080733E-1
1.059805204E1,-3.062844649E-1,-8.365131962E-1,-1.277594985E0,1.557502311E0
1.060813304E1,-3.464460656E-1,-1.199249897E0,-1.426272722E0,1.895383621E0
1.061821304E1,-4.742603526E-1,-1.340578269E0,-1.373074316E0,1.976715977E0
1.062829404E1,-5.959575748E-1,-1.518608444E0,-1.908621382E0,2.510811147E0
1.063837504E1,7.291448683E-2,-1.872438081E0,-3.357786977E0,3.845266476E0
1.064845504E1,-4.666399688E-1,-1.462589779E0,-5.209446685E-1,1.621204820E0
1.065853604E1,-2.035602587E0,-7.732241035E-2,1.880246453E0,2.772180256E0
1.066861704E1,-1.892736982E0,-7.741128802E-2,-3.627127272E-1,1.928731789E0
1.067869804E1,-1.076342886E0,-7.146952289E-1,-1.273495502E0,1.814137281E0
1.068877804E1,-6.992267123E-1,-3.816834337E-1,-4.717148403E-1,9.258051249E-1
1.069885904E1,-2.120823124E-1,3.152818680E-2,2.741554767E-1,3.480433295E-1
1.070894004E1,4.348509961E-1,-1.032284993E-1,6.631409132E-1,7.996920549E-1
1.071902104E1,1.280781133E0,-1.020806909E-1,9.530721047E-1,1.599739734E0
1.072910104E1,2.001295803E0,-3.589506286E-1,1.278229408E0,2.401645450E0
1.073918204E1,2.567233188E0,-5.636932236E-1,1.639310762E0,3.097704968E0
1.074926304E1,3.036117903E0,-8.199521273E-1,1.880361058E0,3.664163086E0
1.075934304E1,3.216652148E0,-1.181947986E0,1.816420586E0,3.878561051E0
1.076942404E1,2.952502427E0,-1.545165913E0,2.000510230E0,3.886753074E0
1.077950504E1,2.375598004E0,-1.712134910E0,2.100657247E0,3.603835831E0
1.078958604E1,1.889737068E0,-1.745583907E0,1.505490215E0,2.980716382E0
1.079966604E1,1.637636120E0,-1.798248609E0,1.412492005E0,2.812593782E0
1.080974704E1,1.695077704E0,-1.569289770E0,2.340359175E0,3.288349111E0
1.081982804E1,1.977008516E0,-1.367254436E0,2.945409170E0,3.801760453E0
1.082990904E1,2.226837822E0,-9.427758157E-1,2.888502313E0,3.767104795E0
1.083998904E1,2.438776293E0,-8.941369218E-1,2.200179196E0,3.404100341E0
1.085007004E1,2.630388672E0,-1.099335600E0,1.902457686E0,3.427364669E0
1.086015104E1,2.710601654E0,-1.395116419E0,1.786548915E0,3.533478197E0
1.087023104E1,2.645083310E0,-1.442167209E0,1.094871835E0,3.205472868E0
1.088031204E1,2.415420467E0,-6.391661596E-1,-8.411061841E-1,2.636332495E0
1.089039304E1,2.090201256E0,1.361081530E0,-3.435269017E0,4.245298274E0
1.090047404E1,1.790173604E0,3.332757386E0,-4.263071031E0,5.699628755E0
1.091055404E1,1.726449186E0,4.341438339E0,-3.702731186E0,5.961453839E0
1.092063504E1,2.063404928E0,3.510396967E0,-1.975725052E0,4.525927114E0
1.093071604E1,1.944833043E0,2.289287254E0,-1.704036516E0,3.453541971E0
1.094079704E1,9.106950670E-1,1.994590509E0,-1.568693939E0,2.696026238E0
1.095087704E1,-2.407731378E-1,1.382567124E0,-5.409247506E-1,1.504015672E0
1.096095804E1,-1.307412277E0,1.228201216E0,-2.976061005E-2,1.794071008E0
1.097103904E1,-2.210579931E0,1.893378714E0,-1.412851389E-1,2.914019231E0
1.098111904E1,-3.040362105E0,2.436543533E0,-1.467031324E-1,3.898982935E0
1.099120004E1,-3.740548930E0,2.462247308E0,4.672183315E-1,4.502517193E0
1.100128104E1,-3.071555831E0,2.485295863E0,1.037503633E0,4.085041559E0
1.101136204E1,-7.482573697E-1,1.752645589E0,4.070843232E-1,1.948685018E0
1.102144204E1,9.755526754E-1,1.067099900E0,-4.942090058E-1,1.527955418E0
1.103152304E1,1.540066263E0,7.439307225E-1,-6.577328235E-1,1.832443582E0
1.104160404E1,1.749777237E0,4.299241322E-1,-5.214874363E-1,1.875767653E0
1.105168404E1,1.620920100E0,2.342154855E-1,-3.508048725E-1,1.674903854E0
1.106176504E1,7.898106077E-1,3.692423129E-1,-6.323716950E-1,1.077049044E0
1.107184604E1,-4.964642769E-1,7.117312753E-1,-9.022006707E-1,1.251800398E0
1.108192704E1,-1.416957231E0,8.444390970E-1,-3.832686138E-1,1.693440289E0
1.109200704E1,-1.904259213E0,6.982277155E-1,-2.635439497E-1,2.045282501E0
1.110208804E1,-2.173201020E0,4.473616987E-1,-5.092819583E-1,2.276467280E0
1.111216904E1,-2.171837157E0,2.532417405E-1,-4.989866196E-1,2.242765182E0
1.112225004E1,-2.046288374E0,-1.130980146E-1,-4.804651254E-1,2.104978386E0
1.113233004E1,-1.858734839E0,-4.961572981E-1,-4.743670642E-1,1.981436695E0
1.114241104E1,-1.582679309E0,-6.733864045E-1,-4.621137853E-1,1.780975069E0
1.115249204E1,-1.380868801E0,-9.265609020E-1,-3.168268485E-1,1.692835787E0
1.116257204E1,-1.197708863E0,-1.203424809E0,-1.792314854E-1,1.707296611E0
1.117265304E1,-8.538460976E-1,-1.348729872E0,7.762646556E-2,1.598171234E0
1.118273404E1,-6.092032725E-1,-1.318994442E0,3.771933568E-1,1.501049564E0
1.119281504E1,-3.576882148E-1,-1.303541420E0,3.898227578E-1,1.406813021E0
1.120289504E1,-1.803152668E-1,-1.216667583E0,2.834838322E-1,1.262203108E0
1.121297604E1,-1.160365328E-1,-8.889030790E-1,1.773241237E-1,9.138145357E-1
1.122305708E1,-4.610938847E-2,-6.633730477E-1,2.326998872E-1,7.045133878E-1
1.123313808E1,-1.311819908E-1,-6.644156063E-1,4.380222335E-1,8.065483802E-1
1.124321808E1,-4.128967479E-1,-9.335524178E-1,4.404353794E-1,1.111749596E0
1.125329908E1,-6.976380238E-1,-1.176486686E0,4.806475586E-1,1.449773021E0
1.126338008E1,-9.526988330E-1,-1.496163322E0,4.518035361E-1,1.830373237E0
1.127346008E1,-1.068380732E0,-1.870521948E0,4.271107444E-1,2.196067698E0
1.128354108E1,-8.622131708E-1,-2.126902474E0,6.695395213E-1,2.390692129E0
1.129362208E1,-2.894406831E-1,-2.221565387E0,1.152205831E0,2.519267147E0
1.130370308E1,5.424038038E-1,-2.261172087E0,1.160269726E0,2.598716401E0
1.131378308E1,1.223086656E0,-2.374785826E0,9.622066981E-1,2.839258780E0
1.132386408E1,1.546676833E0,-2.450288583E0,9.198944914E-1,3.040119939E0
1.133394508E1,1.494055985E0,-2.451033518E0,1.431140530E0,3.207480602E0
1.134402508E1,1.196856924E0,-2.680293489E0,2.073206908E0,3.593692609E0
1.135410608E1,7.134486026E-1,-3.200705037E0,2.292676593E0,4.001235759E0
1.136418708E1,1.002931970E-1,-3.336034750E0,1.840098885E0,3.811187543E0
1.137426808E1,-4.392229593E-1,-1.990461790E0,8.963059464E-1,2.226705929E0
1.138434808E1,-4.467038870E-1,9.204786283E-1,-5.079771522E-1,1.142307338E0
1.139442908E1,-7.746917546E-2,4.461374087E0,-1.745173432E0,4.791188843E0
1.140451008E1,-9.188723981E-2,7.899216464E0,-9.630618533E-1,7.958238005E0
1.141459108E1,5.922194499E-1,1.052913268E1,-2.500593933E-1,1.054873872E1
1.142467108E1,1.436310053E0,1.111010969E1,-1.198396204E0,1.126648469E1
1.143475208E1,-2.695092791E-1,6.714920821E0,-3.379033420E0,7.522011947E0
1.144483308E1,-2.881598798E0,1.892743707E-1,-2.716398583E0,3.964625793E0
1.145491308E1,-3.465799668E0,-2.105131536E0,-1.022275729E0,4.181912695E0
1.146499408E1,-3.110686860E0,-2.874177804E0,-1.375730560E0,4.453078190E0
1.147507508E1,-2.514317349E0,-3.005259515E0,-2.724471834E0,4.772433683E0
1.148515608E1,-2.187967578E0,-2.210103675E0,-3.641285428E0,4.788603131E0
1.149523608E1,-2.019813351E0,-7.862552083E-1,-3.831462316E0,4.402038926E0
1.150531708E1,-1.758244006E0,1.126877739E0,-4.140397616E0,4.637258656E0
1.151539808E1,-1.512816484E0,3.322318937E0,-4.688120924E0,5.941792207E0
1.152547808E1,-1.424187313E0,4.487262050E0,-4.804867017E0,6.726854930E0
1.153555908E1,-1.039273293E0,4.205605765E0,-3.764846157E0,5.739449052E0
1.154564008E1,-1.633674046E-1,2.551120893E0,-1.363019444E0,2.897020664E0
1.155572108E1,8.502927446E-1,8.686804837E-1,4.786131661E-1,1.306397373E0
1.156580108E1,1.451134206E0,-2.795208818E-1,1.064756774E0,1.821436081E0
1.157588208E1,1.365977404E0,-9.032655948E-1,3.746007013E-1,1.679913298E0
1.158596308E1,7.605841774E-1,-9.525202006E-1,-6.784642728E-1,1.395025732E0
1.159604408E1,2.141045719E-1,-1.010318173E0,-1.224347462E0,1.601752255E0
1.160612408E1,1.394853294E-3,-1.314844673E0,-1.544344525E0,2.028255031E0
1.161620508E1,-7.535043687E-2,-1.554937195E0,-1.701864860E0,2.306480299E0
1.162628608E1,-1.765508294E-1,-1.482151054E0,-1.679898040E0,2.247220365E0
1.163636608E1,-2.940357175E-1,-1.245537041E0,-1.583510052E0,2.036006780E0
1.164644708E1,-3.592567304E-1,-1.079084353E0,-1.393966710E0,1.799064098E0
1.165652808E1,-2.622300804E-1,-9.399463481E-1,-1.233518674E0,1.572842036E0
1.166660908E1,-1.322219181E-1,-6.402344459E-1,-9.315263575E-1,1.138035209E0
1.167668908E1,-9.066663355E-2,-2.928151113E-1,-5.731101644E-1,6.499356802E-1
1.168677008E1,-1.828269383E-1,-4.404999912E-2,-2.619622779E-1,3.224753120E-1
1.169685108E1,-4.248888025E-1,1.510727566E-1,-2.472230552E-1,5.142691040E-1
1.170693108E1,-6.549951571E-1,2.291085273E-1,-2.524541205E-1,7.384053467E-1
1.171701208E1,-7.678613296E-1,1.495665139E-1,1.570304116E-1,7.978970571E-1
1.172709308E1,-6.176463595E-1,-2.580826503E-1,6.056469228E-1,9.027191562E-1
1.173717408E1,-1.394961467E-1,-7.297763675E-1,1.019067362E0,1.261162563E0
1.174725408E1,5.712674144E-1,-1.253566437E0,1.349882943E0,1.928719583E0
1.175733508E1,1.427763470E0,-1.899273877E0,1.613699373E0,2.872242234E0
1.176741608E1,2.416692821E0,-2.320963960E0,2.218353512E0,4.018503477E0
1.177749708E1,3.393681572E0,-2.662589289E0,2.560670566E0,5.016322366E0
1.178757708E1,4.187069507E0,-2.904205595E0,2.293801889E0,5.588156073E0
1.179765808E1,4.710426298E0,-2.883705842E0,2.474290234E0,6.051940800E0
1.180773908E1,4.741860637E0,-2.493205392E0,3.295695979E0,6.289906789E0
1.181781908E1,4.194319762E0,-1.966810972E0,2.627204279E0,5.325679861E0
1.182790008E1,3.647051075E0,-1.661649465E0,8.626379710E-1,4.099537139E0
1.183798108E1,3.105224391E0,-1.092148787E0,1.038295931E0,3.451559927E0
1.184806208E1,2.144813080E0,-2.141373163E-1,1.368145552E0,2.553017859E0
1.185814208E1,1.154226629E0,1.118646614E0,2.810013968E-1,1.631738687E0
1.186822308E1,7.616127026E-1,2.452703483E0,-1.976940104E0,3.241003002E0
1.187830408E1,1.649903578E0,4.020846030E0,-3.408334402E0,5.523235285E0
1.188838408E1,2.706546317E0,4.542370888E0,-2.061912426E0,5.675386252E0
1.189846508E1,3.043737995E0,3.428015546E0,9.757833481E-2,4.585319301E0
1.190854608E1,2.537262700E0,2.560390484E0,3.606153309E-1,3.622615748E0
1.191862708E1,1.385319409E0,2.044581864E0,-2.274461639E-1,2.480152540E0
1.192870708E1,1.138908970E-1,1.686604212E0,1.505973780E-1,1.697140087E0
1.193878808E1,-1.196432124E0,1.908786712E0,8.205479586E-1,2.397543637E0
1.194886908E1,-2.300399595E0,2.172107883E0,1.088811854E0,3.345953109E0
1.195894908E1,-2.579547132E0,2.224837489E0,4.921776100E-1,3.441831498E0
1.196903008E1,-1.834558356E0,2.224740425E0,-1.461926705E-1,2.887290532E0
1.197911108E1,-3.291485399E-1,1.953202162E0,-3.218776003E-1,2.006724355E0
1.198919208E1,7.587054670E-1,1.481313733E0,-4.456725843E-1,1.722947594E0
1.199927208E1,1.035078500E0,1.043736765E0,-5.050608534E-1,1.554303832E0
1.200935308E1,6.478735408E-1,8.094277239E-1,-6.346830263E-1,1.215621614E0
1.201943408E1,-1.726405039E-1,6.535976726E-1,-7.116780657E-1,9.815703390E-1
1.202951408E1,-1.032337033E0,4.216310263E-1,-6.562405410E-1,1.293887213E0
1.203959508E1,-1.627826246E0,5.827452064E-2,-4.845809805E-1,1.699421353E0
1.204967608E1,-1.873679152E0,-3.106526273E-1,-4.245224744E-1,1.946123828E0
1.205975708E1,-1.871058430E0,-6.880903977E-1,-5.004273735E-1,2.055421028E0
1.206983708E1,-1.737336409E0,-1.053099911E0,-7.353082721E-1,2.160563694E0
1.207991808E1,-1.546346758E0,-1.221734780E0,-8.559300452E-1,2.148590331E0
1.208999908E1,-1.527375174E0,-7.368982762E-1,-5.022974592E-1,1.768670894E0
1.210008008E1,-1.962932222E0,7.180439293E-2,1.281937712E-1,1.968423842E0
1.211016008E1,-2.186603131E0,-7.108173555E-1,-7.610428914E-2,2.300496996E0
1.212024108E1,-1.373570598E0,-2.216236820E0,-9.676687284E-1,2.781148072E0
1.213032208E1,-4.664470106E-1,-2.942377973E0,-1.535903338E0,3.351739849E0
1.214040208E1,1.086073530E-1,-2.586303005E0,-1.293396062E0,2.893722890E0
1.215048308E1,5.205977824E-1,-1.920061314E0,-4.565193155E-1,2.041094653E0
1.216056408E1,8.198699740E-1,-1.221568719E0,4.738574794E-1,1.545625382E0
1.217064508E1,9.752202612E-1,-7.944828254E-1,9.685386479E-1,1.587553032E0
1.218072508E1,7.807442075E-1,-6.639624470E-1,9.797559464E-1,1.417860841E0
1.219080608E1,5.405031663E-1,-6.517394274E-1,6.741310474E-1,1.082294148E0
1.220088708E1,3.256425494E-1,-6.836722416E-1,5.336920372E-1,9.264329411E-1
1.221096708E1,-1.737207770E-2,-7.306721610E-1,3.112475815E-1,7.943920021E-1
1.222104783E1,-5.581804687E-1,-9.594666928E-1,3.705892190E-1,1.170247042E0
1.223112883E1,-9.995841470E-1,-1.235197994E0,5.524057585E-1,1.682270690E0
1.224120983E1,-1.050183320E0,-1.584630525E0,8.318681681E-1,2.075076759E0
1.225128983E1,-6.325017956E-1,-1.853201911E0,1.172571391E0,2.282397755E0
1.226137083E1,6.930704713E-2,-1.924667165E0,1.293843521E0,2.320167714E0
1.227145183E1,7.611899489E-1,-1.676541739E0,1.067344898E0,2.128245162E0
1.228153183E1,1.142590670E0,-1.389923506E0,8.489092934E-1,1.989484300E0
1.229161283E1,1.279167886E0,-1.095688106E0,9.319008717E-1,1.924900554E0
1.230169383E1,1.150982886E0,-1.016287596E0,1.038638285E0,1.853745281E0
1.231177483E1,7.219364208E-1,-9.781994176E-1,1.205726858E0,1.712262699E0
1.232185483E1,1.574430057E-1,-7.557882911E-1,1.205045657E0,1.431132166E0
1.233193583E1,-4.502642566E-1,-1.677069157E-1,9.060699195E-1,1.025585788E0
1.234201683E1,-9.808853361E-1,1.130667905E0,5.263564128E-1,1.586693741E0
1.235209683E1,-1.292910597E0,3.411849164E0,-4.463232332E-1,3.675804260E0
1.236217783E1,-1.658834031E0,5.741870461E0,-9.109397730E-1,6.045710711E0
1.237225883E1,-2.015643994E0,7.702654123E0,-4.834521756E-1,7.976680215E0
1.238233983E1,-1.968246464E0,8.519656330E0,-4.830911100E-1,8.757392029E0
1.239241983E1,-2.448427999E0,5.829270548E0,-1.959988441E0,6.619422140E0
1.240250083E1,-3.510914446E0,1.360294495E0,-2.864010958E0,4.730695522E0
1.241258183E1,-3.608952956E0,-3.139796931E-1,-2.277223864E0,4.278886913E0
1.242266283E1,-2.838659185E0,-9.725837517E-1,-1.083912399E0,3.190418658E0
1.243274283E1,-1.591811491E0,-1.284616322E0,-2.603817755E-1,2.062013963E0
1.244282383E1,-6.959867701E-1,-1.050018429E0,-1.459649214E0,1.928085090E0
1.245290483E1,-3.492305097E-1,-3.030945164E-1,-3.328531018E0,3.360498025E0
1.246298483E1,-1.619690430E-1,7.701823819E-1,-4.293810428E0,4.365343385E0
1.247306583E1,2.327846718E-1,1.702502207E0,-4.790725526E0,5.089573020E0
1.248314683E1,5.923840490E-1,1.822606355E0,-4.585663088E0,4.970022006E0
1.249322783E1,7.493467060E-1,1.181566163E0,-3.229001760E0,3.519100943E0
1.250330783E1,4.623963520E-1,6.818432325E-1,-1.384827219E0,1.611355643E0
1.251338883E1,-1.002195221E-1,6.685098267E-1,-1.557394195E-1,6.936887686E-1
1.252346983E1,-4.855141962E-1,1.029911023E-1,2.165574789E-1,5.415056265E-1
1.253354983E1,-8.626148745E-1,-2.524897885E-1,-8.977069393E-2,9.032797422E-1
1.254363083E1,-1.234146665E0,-4.780660129E-1,-5.918190618E-1,1.449798229E0
1.255371183E1,-1.242524848E0,-7.372877008E-1,-9.238362457E-1,1.714915321E0
1.256379283E1,-1.006216644E0,-9.359936303E-1,-1.029259790E0,1.716954200E0
1.257387283E1,-6.599740613E-1,-9.831473315E-1,-1.240958086E0,1.715261324E0
1.258395383E1,-3.216345754E-1,-1.073237722E0,-1.539471309E0,1.904011533E0
1.259403483E1,-4.788898855E-2,-1.201411028E0,-1.569880777E0,1.977424453E0
1.260411483E1,1.706764242E-1,-1.224920928E0,-1.500503564E0,1.944498050E0
1.261419583E1,4.861228913E-1,-1.100191047E0,-1.407431239E0,1.851377460E0
1.262427683E1,1.087887921E0,-1.403897767E0,-2.055396289E0,2.716446755E0
1.263435783E1,2.119303140E0,-2.087258352E0,-3.107143155E0,4.301445317E0
1.264443783E1,1.600039985E0,-9.539293796E-1,9.654523413E-1,2.098143808E0
1.265451883E1,-5.102289149E-1,5.979842198E-1,3.637660446E0,3.721624940E0
1.266459983E1,-6.460085714E-1,1.139583739E0,-7.436244015E-1,1.506305222E0
1.267467983E1,-7.229526669E-2,3.756748348E-1,-1.833236008E0,1.872728611E0
1.268476083E1,-2.323674729E-1,3.122454089E-1,-8.220285467E-1,9.095178775E-1
1.269484183E1,-2.923330083E-1,6.760977584E-1,1.147877137E-1,7.454817140E-1
1.270492283E1,3.773588330E-2,5.456054467E-1,5.427560985E-1,7.705150763E-1
1.271500283E1,4.437796944E-1,7.588808835E-2,5.972824808E-1,7.479610826E-1
1.272508383E1,6.276921684E-1,-4.038742018E-1,7.229327863E-1,1.039107137E0
1.273516483E1,6.367655852E-1,-6.794762796E-1,7.919503963E-1,1.222433579E0
1.274524483E1,6.716532898E-1,-9.684445077E-1,9.128164369E-1,1.490716859E0
1.275532583E1,7.526442432E-1,-1.169627318E0,9.231888127E-1,1.669364850E0
1.276540683E1,8.842931342E-1,-1.299109815E0,9.906060398E-1,1.857676233E0
1.277548783E1,1.191157643E0,-1.436541018E0,1.285543106E0,2.266082016E0
1.278556783E1,1.628000493E0,-1.532472777E0,1.586289965E0,2.741381818E0
1.279564883E1,2.135749019E0,-1.526364775E0,1.781548961E0,3.172558904E0
1.280572983E1,2.472636934E0,-1.467837070E0,2.005799621E0,3.505953678E0
1.281580983E1,2.601365725E0,-1.416819529E0,2.248920416E0,3.719156390E0
1.282589083E1,2.674250099E0,-1.247088892E0,2.613286151E0,3.941587092E0
1.283597183E1,2.761338821E0,-1.040734804E0,3.152297108E0,4.317996998E0
1.284605283E1,2.796318327E0,-1.130005415E0,3.318275002E0,4.484111664E0
1.285613283E1,2.902660761E0,-1.101799616E0,2.593834219E0,4.045661608E0
1.286621383E1,3.281923740E0,-5.727985078E-1,1.409705222E0,3.617511628E0
1.287629483E1,3.485217979E0,4.903708935E-1,-1.976171780E-1,3.525090144E0
1.288637483E1,3.838058852E0,2.224515308E0,-2.156805135E0,4.932643561E0
1.289645583E1,4.535458310E0,3.359805436E0,-1.997008917E0,5.987212980E0
1.290653683E1,3.898559116E0,3.021639905E0,-7.967264020E-1,4.996383077E0
1.291661783E1,2.658461739E0,2.863396708E0,-4.320402396E-1,3.931045446E0
1.292669783E1,1.289159024E0,2.447642133E0,-2.708266385E-1,2.779609697E0
1.293677883E1,3.936105841E-1,1.950210727E0,-4.416635414E-2,1.990025587E0
1.294685983E1,-5.140111864E-2,1.669571857E0,4.252684512E-3,1.670368327E0
1.295693983E1,-7.212482035E-1,1.723331158E0,-3.701375216E-1,1.904487080E0
1.296702083E1,-1.623675015E0,1.925258319E0,-5.693474811E-1,2.582072172E0
1.297710183E1,-2.409600441E0,2.072750825E0,-4.831565623E-1,3.214951093E0
1.298718283E1,-2.822442517E0,1.863011785E0,-4.058353214E-1,3.406126389E0
1.299726283E1,-2.451570293E0,1.899684352E0,2.868570909E-3,3.101452203E0
1.300734383E1,-1.292024452E0,1.917804873E0,2.893178185E-1,2.330452213E0
1.301742483E1,-4.332643542E-1,1.607452208E0,9.261229455E-2,1.667392467E0
1.302750483E1,-2.410102424E-1,1.365438291E0,-3.321540087E-1,1.425774859E0
1.303758583E1,-3.772527060E-1,1.263203818E0,-6.396660966E-1,1.465324608E0
1.304766683E1,-5.120468143E-1,1.244396249E0,-6.864116621E-1,1.510587612E0
1.305774783E1,-8.572956625E-1,8.367412376E-1,-7.432881135E-1,1.409811679E0
1.306782783E1,-1.311900307E0,2.148810822E-1,-1.031993802E0,1.682934194E0
1.307790883E1,-1.611773593E0,-2.074989724E-1,-8.468898113E-1,1.832509833E0
1.308798983E1,-1.569229836E0,-7.487558448E-1,-5.213066112E-1,1.815179930E0
1.309806983E1,-1.419547255E0,-1.204213598E0,-3.413660046E-1,1.892557938E0
1.310815083E1,-1.440953034E0,-1.591537841E0,-3.193912911E-1,2.170564245E0
1.311823183E1,-1.426489362E0,-1.880885553E0,-4.397750826E-1,2.401250609E0
1.312831283E1,-1.301533486E0,-1.812129899E0,-4.071857724E-1,2.267951595E0
1.313839283E1,-1.622153862E0,-1.351419591E0,4.250118864E-1,2.153683628E0
1.314847383E1,-2.140846914E0,-6.910841721E-1,9.750692569E-1,2.451852952E0
1.315855483E1,-1.814190165E0,-8.982399130E-1,-4.401099819E-1,2.071670266E0
1.316863483E1,-1.073464009E0,-1.690738778E0,-1.277974762E0,2.375740324E0
1.317871583E1,-4.767454192E-1,-1.933228658E0,-6.411656150E-1,2.091829961E0
1.318879683E1,2.315561718E-1,-1.731464050E0,-7.009925714E-1,1.882279630E0
1.319887783E1,3.545763266E-1,-1.396345503E0,4.682497072E-1,1.514847492E0
1.320895783E1,3.489741093E-1,-1.301740478E0,1.066319296E0,1.718530780E0
1.321903883E1,3.426076609E-1,-1.340166040E0,1.068411138E0,1.747835056E0
1.322912029E1,2.241459954E-1,-1.378912615E0,8.922777995E-1,1.657649269E0
1.323920029E1,1.101887324E-1,-1.362571986E0,6.011706600E-1,1.493368721E0
1.324928129E1,6.463366002E-2,-1.395447371E0,6.685873023E-1,1.548696179E0
1.325936229E1,-6.448221713E-2,-1.447843101E0,1.060394020E0,1.795784809E0
1.326944329E1,-2.855142778E-1,-1.599224006E0,1.314437414E0,2.089684555E0
1.327952329E1,-2.556314975E-1,-1.713764529E0,1.292937202E0,2.161948873E0
1.328960429E1,8.437386006E-2,-1.798270243E0,1.220260112E0,2.174840122E0
1.329968529E1,4.432011124E-1,-1.953162401E0,1.590507562E0,2.557534926E0
1.330976529E1,6.804358077E-1,-2.197201209E0,2.037086026E0,3.072524291E0
1.331984629E1,8.097636464E-1,-2.462492307E0,2.494221930E0,3.597322416E0
1.332992729E1,7.746949705E-1,-2.714424856E0,2.998363017E0,4.118062090E0
1.334000829E1,5.219283164E-1,-2.839617836E0,3.079454542E0,4.221241393E0
1.335008829E1,1.394058073E-1,-2.787492247E0,2.535843873E0,3.770948310E0
1.336016929E1,-5.014636463E-1,-2.727993904E0,1.874377310E0,3.347641981E0
1.337025029E1,-1.561662954E0,-2.554046255E0,1.422765563E0,3.314544509E0
1.338033029E1,-2.528643904E0,-1.753351933E0,1.178532920E0,3.295030021E0
1.339041129E1,-2.751759035E0,7.626008821E-1,-7.248208523E-2,2.856394851E0
1.340049229E1,-2.169769874E0,5.030505806E0,-1.783605719E0,5.761522310E0
1.341057329E1,-1.653080370E0,1.021475596E1,-5.344969064E-1,1.036144782E1
1.342065329E1,-2.973540124E-1,1.434729667E1,9.769972301E-1,1.438359708E1
1.343073429E1,1.824816018E0,1.501026100E1,-1.757829438E0,1.522260993E1
1.344081529E1,8.342637724E-1,7.823596178E0,-5.137465999E0,9.396712727E0
1.345089529E1,-2.373847348E0,-5.818973601E-1,-3.311053691E0,4.115438289E0
1.346097629E1,-3.620257963E0,-2.725687762E0,-1.036528902E0,4.648659340E0
1.347105729E1,-3.381170285E0,-3.180795853E0,-1.111401329E0,4.773362302E0
1.348113729E1,-2.410678082E0,-3.349950539E0,-2.432444343E0,4.790649529E0
1.349121829E1,-1.564025522E0,-2.257874842E0,-3.507631526E0,4.455070545E0
1.350129929E1,-1.099956281E0,-2.702249783E-1,-4.032124431E0,4.188192067E0
1.351138029E1,-8.379323155E-1,2.276692352E0,-4.605900009E0,5.205744281E0
1.352146029E1,-7.287229916E-1,4.278428743E0,-4.980430836E0,6.606109371E0
1.353154129E1,-5.079286203E-1,5.101127892E0,-4.927075578E0,7.110244089E0
1.354162229E1,-1.565881428E-1,3.907814673E0,-3.690551435E0,5.377332542E0
1.355170229E1,-7.079136282E-2,2.466938530E0,-1.978461111E0,3.163084806E0
1.356178329E1,-1.898740026E-1,1.260574325E0,-4.694925329E-1,1.358500278E0
1.357186429E1,-5.544791812E-1,4.129993665E-1,5.308277786E-1,8.716614994E-1
1.358194529E1,-9.951095653E-1,1.077285165E-1,5.517888772E-1,1.142943325E0
1.359202529E1,-1.175603172E0,-2.522447902E-1,2.194460034E-3,1.202362287E0
1.360210629E1,-1.008663411E0,-7.737509376E-1,-6.723134404E-1,1.438088228E0
1.361218729E1,-5.520256895E-1,-1.391151422E0,-1.203006148E0,1.920223537E0
1.362226729E1,-8.327078283E-2,-2.158589121E0,-1.218898880E0,2.480353905E0
1.363234829E1,3.007635239E-1,-2.716339234E0,-1.058941280E0,2.930923773E0
1.364242929E1,8.178576547E-1,-2.650193192E0,-1.444774336E0,3.127265256E0
1.365251029E1,1.688231492E0,-2.536347318E0,-2.081533928E0,3.689981949E0
1.366259029E1,1.352912678E0,-2.285662565E0,2.153177230E-1,2.664767869E0
1.367267129E1,5.617519480E-1,-1.437753730E0,1.370851497E0,2.064445414E0
1.368275229E1,3.251031438E-1,-1.087301445E0,-4.584808371E-1,1.223977600E0
1.369283229E1,5.169877115E-1,-1.040542431E0,-9.319006524E-1,1.489444081E0
1.370291329E1,4.934354192E-1,-9.038333595E-1,5.803069174E-2,1.031387811E0
1.371299429E1,4.336020309E-1,-9.379185337E-1,4.324531261E-1,1.120141778E0
1.372307529E1,5.741401514E-1,-8.001867843E-1,5.324685073E-1,1.119579615E0
1.373315529E1,6.531871980E-1,-1.034985237E0,8.978276843E-1,1.517874338E0
1.374323629E1,6.485453859E-1,-1.135381345E0,1.435398472E0,1.941666987E0
1.375331729E1,7.343518138E-1,-1.048339693E0,1.881765559E0,2.275814210E0
1.376339729E1,8.299698696E-1,-1.187577685E0,1.955648637E0,2.433875990E0
1.377347829E1,9.788060662E-1,-1.362536902E0,1.383157693E0,2.174325948E0
1.378355929E1,1.130652117E0,-1.749580479E0,7.477109474E-1,2.213250488E0
1.379363929E1,1.312582385E0,-1.831609313E0,1.339225223E0,2.621295365E0
1.380372029E1,1.464218228E0,-1.747837424E0,2.147704529E0,3.132332266E0
1.381380129E1,1.737584039E0,-1.485592141E0,2.425218061E0,3.332846373E0
1.382388229E1,2.123687090E0,-1.066528042E0,2.682283881E0,3.583598155E0
1.383396229E1,2.508815703E0,-8.548313534E-1,2.856395252E0,3.896650704E0
1.384404329E1,2.765980633E0,-8.468814790E-1,2.891589643E0,4.090128087E0
1.385412429E1,3.024394236E0,-8.808146256E-1,2.726293534E0,4.165989838E0
1.386420429E1,3.341241111E0,-9.251166397E-1,2.589929448E0,4.327524409E0
1.387428529E1,3.702393509E0,-1.148231186E0,2.384229079E0,4.550901104E0
1.388436629E1,3.952445593E0,-1.202457095E0,1.952540842E0,4.569479727E0
1.389444729E1,4.020108403E0,-5.897209346E-1,8.354361391E-1,4.148131615E0
1.390452729E1,3.623921536E0,1.105183985E0,-1.344675997E0,4.020247813E0
1.391460829E1,2.782218936E0,3.335082824E0,-2.828617469E0,5.183106832E0
1.392468929E1,2.916589121E0,5.283411332E0,-3.093784021E0,6.781771669E0
1.393476929E1,3.377817199E0,4.845294666E0,-2.120254190E0,6.275508526E0
1.394485029E1,2.006007197E0,4.522131920E0,-1.135445080E0,5.075724334E0
1.395493129E1,1.777974558E-1,4.315972545E0,-2.937711676E-1,4.329611119E0
1.396501229E1,-7.639048111E-1,3.897301379E0,-2.244281966E-2,3.971525183E0
1.397509229E1,-1.288997056E0,3.688977365E0,-1.606031152E-1,3.910992300E0
1.398517329E1,-2.049918618E0,3.237361232E0,-1.178881706E0,4.009044295E0
1.399525429E1,-2.668020183E0,2.609765543E0,-2.405944469E0,4.440470321E0
1.400533429E1,-3.102310723E0,2.013796273E0,-1.715121083E0,4.076928695E0
1.401541529E1,-3.021293457E0,1.226002078E0,-4.916485101E-1,3.297425285E0
1.402549629E1,-1.972443887E0,5.486079919E-1,3.217202371E-1,2.072440476E0
1.403557629E1,-3.246552470E-1,4.762557149E-3,8.239609784E-1,8.856271254E-1
1.404565729E1,8.742420629E-1,-3.009719771E-1,5.206998894E-1,1.061136980E0
1.405573829E1,1.448736556E0,-5.752139926E-2,1.060012490E-1,1.453747772E0
1.406581929E1,1.366557448E0,1.954034221E-1,-1.223032131E-1,1.385864291E0
1.407589929E1,1.071711306E0,4.823473442E-1,-3.234561293E-1,1.218953630E0
1.408598029E1,5.325255176E-1,6.350397795E-1,-4.926888029E-1,9.641582884E-1
1.409606129E1,-1.077343637E-1,7.905359548E-1,-8.238282466E-1,1.146842085E0
1.410614129E1,-7.454103604E-1,6.060685802E-1,-1.361412629E0,1.666253305E0
1.411622229E1,-1.194676205E0,2.343856394E-1,-1.441025686E0,1.886463064E0
1.412630329E1,-1.438914403E0,-2.209405518E-1,-1.061060895E0,1.801427104E0
1.413638429E1,-1.680739747E0,-5.318691677E-1,-6.586498131E-1,1.881911391E0
1.414646429E1,-1.852891131E0,-5.708969933E-1,-2.436008513E-1,1.954090657E0
1.415654529E1,-1.670953555E0,-8.546547675E-1,-4.036223330E-1,1.919747780E0
1.416662629E1,-1.528128296E0,-1.485244231E0,-6.273822659E-1,2.221426348E0
1.417670629E1,-1.493780874E0,-1.763699750E0,-5.486465836E-1,2.375506511E0
1.418678729E1,-1.493407237E0,-1.831465471E0,-4.992969605E-1,2.415331944E0
1.419686829E1,-1.365830931E0,-1.834742836E0,-2.698452017E-1,2.303169955E0
1.420694929E1,-1.118670588E0,-1.736429506E0,2.577364951E-2,2.065738510E0
1.421702929E1,-8.833447158E-1,-1.342633565E0,3.291982412E-2,1.607496965E0
1.422710954E1,-7.763359916E-1,-9.747454673E-1,-2.421571738E-1,1.269435463E0
1.423719054E1,-8.575427073E-1,-6.469096273E-1,-1.738795289E-1,1.088166187E0
1.424727054E1,-1.012191621E0,-4.057371247E-1,1.160341939E-1,1.096639606E0
1.425735154E1,-1.193547108E0,-5.689042622E-1,5.649857506E-1,1.437851055E0
1.426743254E1,-1.347345836E0,-1.162491961E0,1.024420196E0,2.053330246E0
1.427751254E1,-1.401348381E0,-1.796856387E0,1.039964141E0,2.504794517E0
1.428759354E1,-1.222903638E0,-2.236927192E0,8.074706608E-1,2.674199963E0
1.429767454E1,-9.253101826E-1,-2.485321591E0,1.192731129E0,2.907856580E0
1.430775554E1,-4.477025914E-1,-2.519322565E0,1.656155421E0,3.047995173E0
1.431783554E1,2.271058559E-2,-2.420490003E0,1.712805001E0,2.965297387E0
1.432791654E1,6.062896049E-1,-2.229284297E0,1.597247939E0,2.808646745E0
1.433799754E1,1.261139166E0,-2.018307985E0,1.779624934E0,2.971717353E0
1.434807754E1,1.745942341E0,-2.026620972E0,2.262632137E0,3.503571236E0
1.435815854E1,1.984962484E0,-2.154112492E0,2.660365008E0,3.956996167E0
1.436823954E1,2.021498811E0,-2.389819602E0,2.717285606E0,4.145037544E0
1.437831954E1,1.726830132E0,-2.614822215E0,2.178159167E0,3.816230454E0
1.438840054E1,9.194629669E-1,-2.630497431E0,1.584207771E0,3.205408421E0
1.439848154E1,-4.286669809E-1,-2.215938027E0,1.241169171E0,2.575779034E0
1.440856254E1,-1.768321974E0,-8.603236431E-1,3.549990803E-1,1.998285196E0
1.441864254E1,-2.144726542E0,1.672490788E0,-1.121488361E0,2.941906442E0
1.442872354E1,-1.922777345E0,5.358436371E0,-1.406722557E0,5.864194865E0
1.443880454E1,-1.584876108E0,9.327470223E0,-4.277615395E-1,9.470824302E0
1.444888454E1,-4.811165053E-1,1.200175628E1,-4.689364627E-1,1.202054609E1
1.445896554E1,-2.096150798E-1,1.071351644E1,-2.233138781E0,1.094578831E1
1.446904654E1,-2.274372761E0,3.871903998E0,-4.716503309E0,6.512281896E0
1.447912754E1,-3.348050194E0,-9.463391089E-1,-3.690639728E0,5.072062639E0
1.448920754E1,-3.039759842E0,-2.138866462E0,-1.826552056E0,4.141398562E0
1.449928854E1,-2.391832214E0,-2.619230431E0,-1.478959644E0,3.842987252E0
1.450936954E1,-1.805464073E0,-2.376083908E0,-2.319757095E0,3.779781506E0
1.451944954E1,-1.389094956E0,-1.377176576E0,-3.425643623E0,3.944773041E0
1.452953054E1,-1.124312566E0,5.395401299E-1,-4.147739672E0,4.331157661E0
1.453961154E1,-9.870000619E-1,3.547217469E0,-4.487902612E0,5.805014276E0
1.454969154E1,-8.585946214E-1,5.823469525E0,-4.111774326E0,7.180297357E0
1.455977254E1,-5.074599659E-1,5.902505754E0,-3.154496538E0,6.711776084E0
1.456985354E1,1.786850631E-2,4.154702829E0,-2.210141682E0,4.706017545E0
1.457993454E1,3.439607066E-1,2.335366822E0,-1.158891537E0,2.629691380E0
1.459001454E1,1.920301634E-1,9.892576718E-1,9.258408174E-2,1.011967459E0
1.460009554E1,-4.903580296E-1,2.383330947E-1,6.296603411E-1,8.329020389E-1
1.461017654E1,-1.295495067E0,-7.196811497E-2,4.206501558E-2,1.298174234E0
1.462025654E1,-1.537577981E0,-5.771780723E-1,-1.079066811E0,1.965112149E0
1.463033754E1,-1.465985842E0,-1.004527091E0,-1.953803841E0,2.641124498E0
1.464041854E1,-1.202945922E0,-1.451457265E0,-2.490795754E0,3.123759045E0
1.465049854E1,-5.862938815E-1,-1.960831025E0,-2.762387227E0,3.437932811E0
1.466057954E1,2.984255147E-1,-2.589969794E0,-3.067848111E0,4.026002156E0
1.467066054E1,1.494659418E-1,-1.965523415E0,-2.801773779E-1,1.991010228E0
1.468074154E1,-4.748804498E-1,-5.571472657E-1,1.455248892E0,1.629010084E0
1.469082154E1,-1.275815678E-1,-6.351152086E-1,-1.352387744E0,1.499533592E0
1.470090254E1,-1.232546282E-1,-1.207382789E0,-1.347115456E0,1.813197439E0
1.471098354E1,-3.028325611E-1,-1.111966170E0,-4.451595642E-1,1.235452695E0
1.472106354E1,-4.189252272E-1,-1.060800694E0,9.747425437E-2,1.144682353E0
1.473114454E1,-4.146807334E-1,-1.086043709E0,5.467504046E-1,1.284673909E0
1.474122554E1,-1.362991816E-1,-1.039520922E0,7.016454130E-1,1.261541716E0
1.475130654E1,4.114749974E-1,-9.474933493E-1,6.153163902E-1,1.202360005E0
1.476138654E1,9.315055999E-1,-8.522281730E-1,9.119042712E-1,1.557422531E0
1.477146754E1,1.298827102E0,-7.108454221E-1,1.485009758E0,2.097023375E0
1.478154854E1,1.575768777E0,-8.328592712E-1,2.006543387E0,2.683825287E0
1.479162854E1,1.889777122E0,-1.038939709E0,2.459668102E0,3.271180285E0
1.480170954E1,2.211479817E0,-1.225575816E0,3.045014734E0,3.957877436E0
1.481179054E1,2.626583597E0,-1.607120671E0,3.253826991E0,4.479862535E0
1.482187054E1,3.034272814E0,-2.084203767E0,3.076684424E0,4.797572709E0
1.483195154E1,3.353637208E0,-2.150272626E0,3.176587611E0,5.095219695E0
1.484203254E1,3.526227134E0,-1.760822335E0,3.663279437E0,5.380928296E0
1.485211354E1,3.647701870E0,-1.472157578E0,3.834165484E0,5.493068525E0
1.486219354E1,3.920163993E0,-1.392263562E0,3.589357767E0,5.494503866E0
1.487227454E1,4.105539440E0,-1.406510888E0,3.641258823E0,5.665023635E0
1.488235554E1,4.245458925E0,-1.242382468E0,3.518717555E0,5.652327743E0
1.489243554E1,4.317785474E0,-8.749410975E-1,2.575885606E0,5.103330283E0
1.490251654E1,4.204015907E0,-4.476528901E-1,8.782798576E-1,4.318045665E0
1.491259754E1,3.652184930E0,5.267160165E-1,-1.500430620E0,3.983362470E0
1.492267754E1,2.671691942E0,2.390092667E0,-3.149867005E0,4.772016654E0
1.493275854E1,1.696724280E0,4.714901757E0,-3.040227034E0,5.861070916E0
1.494283954E1,1.730037037E0,5.104664873E0,-2.109112905E0,5.787831102E0
1.495292054E1,2.154296972E0,3.472076654E0,-1.678747308E0,4.417522412E0
1.496300054E1,1.260796227E0,2.598175192E0,-9.864808291E-1,3.051764388E0
1.497308154E1,-3.020414329E-1,1.992228819E0,-2.574529052E-3,2.014996606E0
1.498316254E1,-1.861626872E0,1.886739786E0,4.822718785E-1,2.694072715E0
1.499324254E1,-3.367691868E0,2.524696156E0,3.721553592E-1,4.225392149E0
1.500332354E1,-4.183530479E0,3.183679115E0,-3.863317508E-2,5.257302778E0
1.501340454E1,-3.943432987E0,3.495484813E0,-8.572719812E-2,5.270334615E0
1.502348454E1,-2.134094549E0,3.702203767E0,-1.041710705E-1,4.274520311E0
1.503356554E1,-3.722781873E-1,3.285972059E0,-3.109707159E-1,3.321581884E0
1.504364654E1,5.096392232E-1,2.715167452E0,-9.967559950E-1,2.936901249E0
1.505372754E1,1.512104001E0,2.091896948E0,-1.195842140E0,2.844737207E0
1.506380754E1,2.731568307E0,1.284116385E0,-9.996850115E-1,3.179589664E0
1.507388854E1,3.449131595E0,2.709921330E-1,-5.337700975E-1,3.500693648E0
1.508396954E1,3.249297153E0,-7.793929160E-1,-1.262402165E-1,3.343848367E0
1.509404954E1,2.072237440E0,-8.921471143E-1,9.113558024E-2,2.257963723E0
1.510413054E1,4.521540767E-1,-5.636236417E-1,-1.773749945E-1,7.440274237E-1
1.511421154E1,-7.240209532E-1,-3.936205244E-1,-3.073895887E-1,8.795634241E-1
1.512429154E1,-1.263411979E0,-3.473275334E-1,-2.724694321E-1,1.338314550E0
1.513437254E1,-1.670751826E0,-1.606844097E-1,7.344181797E-1,1.832102946E0
1.514445354E1,-2.375384581E0,-1.226576275E-1,2.272932007E0,3.289941749E0
1.515453454E1,-1.846663554E0,-1.269664407E0,-2.228637010E-2,2.241140484E0
1.516461454E1,-1.150325074E0,-2.352191015E0,-2.046071442E0,3.323019515E0
1.517469554E1,-6.331663316E-1,-2.891918256E0,-2.974432702E0,4.196586792E0
1.518477654E1,-4.056961942E-1,-3.246896871E0,-2.582779765E0,4.168654461E0
1.519485654E1,-5.579360551E-1,-4.024526267E0,-1.565897800E0,4.354324315E0
1.520493754E1,-1.102059817E0,-4.524231071E0,-5.729955590E-1,4.691644332E0
1.521501854E1,-1.862960329E0,-4.299993274E0,-2.234364358E-1,4.691533564E0
1.522509854E1,-2.670425143E0,-3.531127101E0,-3.879805925E-1,4.444159986E0
1.523517954E1,-3.377367548E0,-2.743880205E0,-4.392179891E-1,4.373602928E0
1.524526054E1,-3.743532472E0,-2.342192861E0,3.164483875E-2,4.415982808E0
1.525534154E1,-3.544644109E0,-2.449413840E0,3.295338714E-1,4.321194579E0
1.526542154E1,-3.048460498E0,-2.578402247E0,1.739002866E-1,3.996437272E0
1.527550254E1,-2.458087015E0,-2.318233895E0,-4.616376758E-4,3.378816417E0
1.528558354E1,-1.542087353E0,-1.831907521E0,2.095612854E-1,2.403712650E0
1.529566354E1,-2.135087407E-1,-1.142993250E0,5.910438672E-1,1.304359002E0
1.530574454E1,1.296086220E0,-1.559411484E-1,1.400767168E0,1.914759982E0
1.531582554E1,2.482228999E0,7.447236049E-1,2.252134631E0,3.433392556E0
1.532590554E1,2.999574267E0,1.177156777E0,2.335612990E0,3.979727616E0
1.533598654E1,2.580187402E0,8.772314519E-1,2.066504537E0,3.420137871E0
1.534606754E1,1.413731030E0,3.593482393E-1,2.080706839E0,2.541083929E0
1.535614854E1,-3.573058069E-1,1.835207105E-2,2.200630601E0,2.229524452E0
1.536622854E1,-2.199061208E0,2.096273589E-1,2.088090703E0,3.039726404E0
1.537630954E1,-3.156838641E0,2.483424754E0,8.783371603E-1,4.111508832E0
1.538639054E1,-2.225696445E0,5.474512957E0,-9.644590455E-1,5.987837509E0
1.539647054E1,-8.184254193E-1,8.219093074E0,-1.887847833E0,8.472737489E0
1.540655154E1,5.730528617E-1,1.027772346E1,-2.928470371E0,1.070214594E1
1.541663254E1,1.150870035E0,9.270710716E0,-5.280912817E0,1.073119840E1
1.542671254E1,-8.780757898E-1,4.316631526E0,-6.210725355E0,7.614291449E0
1.543679354E1,-2.467314506E0,6.343644261E-3,-3.974374114E0,4.677962239E0
1.544687454E1,-2.602136680E0,-1.601303861E0,-2.129858242E0,3.724457744E0
1.545695554E1,-2.281370124E0,-2.020055718E0,-1.676516011E0,3.477927642E0
1.546703554E1,-1.699430664E0,-1.503185243E0,-2.038976723E0,3.050419075E0
1.547711654E1,-1.075802311E0,-7.483149648E-2,-2.482526914E0,2.706638181E0
1.548719754E1,-4.708476251E-1,2.526916929E0,-2.903698642E0,3.877946938E0
1.549727754E1,-7.734609157E-2,5.794811736E0,-4.029998676E0,7.058804064E0
1.550735854E1,-1.521618006E-1,7.792980157E0,-4.739547771E0,9.122335556E0
1.551743954E1,-3.994311950E-1,6.835547125E0,-4.545906407E0,8.218851188E0
1.552751954E1,-3.086628199E-1,3.424828228E0,-2.710341453E0,4.378432587E0
1.553760054E1,-1.880262825E-1,6.077332824E-1,-5.091395786E-1,8.148108591E-1
1.554768154E1,-3.056778163E-1,-8.237516481E-1,7.767470509E-1,1.172749626E0
1.555776254E1,1.273921764E0,-2.244515124E0,-3.208870089E0,4.117957267E0
1.556784254E1,5.182570835E0,-4.167712299E0,-8.663536427E0,1.092180066E1
1.557792354E1,-7.011454761E-2,-4.179392697E0,6.077886556E0,7.376513021E0
1.558800454E1,-4.861424210E0,-1.032574430E0,6.767070383E0,8.396004816E0
1.559808454E1,-5.183468968E0,1.261291779E0,-6.183260983E-1,5.370431515E0
1.560816554E1,-3.682252190E0,2.240594566E-1,-4.699601932E0,5.974566273E0
1.561824654E1,-2.249387609E0,-1.534906973E0,-3.812669950E0,4.685310681E0
1.562832654E1,-1.453785919E0,-1.051190211E0,-1.845336821E0,2.573667100E0
1.563840754E1,-6.411439803E-1,-5.450037682E-1,-3.409628391E-1,9.079374254E-1
1.564848854E1,3.409862280E-1,-9.045777100E-1,6.797139689E-2,9.690988350E-1
1.565856954E1,1.041915942E0,-1.198832991E0,-4.558085865E-1,1.652437846E0
1.566864954E1,1.364017417E0,-1.115984377E0,-4.789746702E-1,1.826302653E0
1.567873054E1,1.505649844E0,-8.028490216E-1,-1.771630329E-1,1.715498396E0
1.568881154E1,1.679466516E0,-6.994129461E-1,2.489621633E-1,1.836237568E0
1.569889154E1,1.856330171E0,-7.984337890E-1,5.684065910E-1,2.099177047E0
1.570897254E1,1.972708474E0,-9.016774911E-1,8.506880164E-1,2.329865044E0
1.571905354E1,2.012804293E0,-1.050696706E0,9.456445328E-1,2.459591078E0
1.572913354E1,1.966730573E0,-1.300082207E0,9.731192835E-1,2.550530147E0
1.573921454E1,1.827792251E0,-1.513209125E0,1.150888746E0,2.637265870E0
1.574929554E1,1.631683069E0,-1.351896139E0,1.631736279E0,2.674430051E0
1.575937654E1,1.391922962E0,-1.013182724E0,2.216323358E0,2.806435104E0
1.576945654E1,1.365878586E0,-8.740587527E-1,1.370714818E0,2.123313950E0
1.577953754E1,1.742624923E0,-1.228755532E0,9.730093559E-1,2.343785184E0
1.578961854E1,2.267635307E0,-1.272954635E0,1.992603625E0,3.276133788E0
1.579969854E1,2.543404031E0,-1.489676421E0,2.563704686E0,3.906484560E0
1.580977954E1,2.438770738E0,-1.687774240E0,2.586807035E0,3.935448543E0
1.581986054E1,2.297162869E0,-1.571768405E0,2.087334366E0,3.479134651E0
1.582994054E1,2.242384983E0,-1.375545203E0,1.548124019E0,3.052392995E0
1.584002154E1,2.089946317E0,-1.218094888E0,1.237955541E0,2.717381955E0
1.585010254E1,1.826377224E0,-1.223659683E0,1.272610819E0,2.540184065E0
1.586018254E1,1.510943913E0,-1.318148934E0,1.453395032E0,2.476454167E0
1.587026354E1,1.156308822E0,-1.558734376E0,1.429485767E0,2.410421645E0
1.588034454E1,8.759552971E-1,-1.490882701E0,1.199513606E0,2.104486114E0
1.589042554E1,9.102398613E-1,-1.086415007E0,2.920573121E-1,1.447111484E0
1.590050554E1,1.273196125E0,1.950408947E-1,-1.289061960E0,1.822292529E0
1.591058654E1,1.183976385E0,2.260662210E0,-2.292416684E0,3.430388894E0
1.592066754E1,6.945416307E-1,3.866301196E0,-1.983792456E0,4.400693755E0
1.593074754E1,6.864908919E-1,4.358603425E0,-2.279857450E0,4.966532347E0
1.594082854E1,1.647650354E0,3.141003796E0,-2.704146620E0,4.460164288E0
1.595090954E1,1.573378436E0,2.309101714E0,-1.370499641E0,3.112192104E0
1.596098954E1,2.505768719E-1,1.181666735E0,-5.698655810E-1,1.335616645E0
1.597107054E1,-1.280034151E0,4.120883703E-1,-6.102096514E-1,1.476705818E0
1.598115154E1,-2.438367864E0,5.881322461E-1,-6.853399406E-1,2.600236185E0
1.599123254E1,-2.905921168E0,1.542783172E0,-6.233465908E-1,3.348599517E0
1.600131254E1,-2.809101217E0,2.670311707E0,-5.513685355E-1,3.914795208E0
1.601139354E1,-1.978769113E0,3.298733023E0,2.131035286E-1,3.852606893E0
1.602147454E1,-4.119111997E-1,3.442334207E0,4.764170250E-1,3.499472648E0
1.603155454E1,8.239206326E-1,3.178827680E0,1.787090367E-1,3.288727344E0
1.604163554E1,1.509501990E0,2.588013316E0,-1.073999029E-1,2.997989980E0
1.605171654E1,1.794214615E0,1.703642414E0,-2.860873049E-1,2.490672500E0
1.606179654E1,1.617381365E0,6.571966338E-1,-4.940463071E-1,1.814362601E0
1.607187754E1,1.140808731E0,-1.815116072E-1,-6.273198469E-1,1.314504170E0
1.608195854E1,5.378853679E-1,-5.937151676E-1,-7.411585575E-1,1.091391028E0
1.609203854E1,-1.278446925E-1,-6.200650603E-1,-8.923362717E-1,1.094115609E0
1.610211954E1,-6.895627266E-1,-5.972346067E-3,-5.093948096E-1,8.573304467E-1
1.611220054E1,-1.707553616E0,9.694782954E-1,3.818557803E-1,2.000360306E0
1.612228154E1,-2.596261398E0,1.003563470E0,5.670318376E-1,2.840640419E0
1.613236154E1,-1.993702317E0,-1.329627603E-1,-1.196517493E0,2.328987363E0
1.614244254E1,-9.565577030E-1,-1.248578762E0,-2.080750693E0,2.608347180E0
1.615252354E1,-7.211990869E-1,-1.599084842E0,-1.962513561E0,2.632234779E0
1.616260354E1,-5.496639991E-1,-1.485484552E0,-1.799506345E0,2.397293881E0
1.617268454E1,-5.809618056E-1,-1.124963361E0,-8.271939039E-1,1.512385182E0
1.618276554E1,-8.473656285E-1,-6.171250802E-1,6.699154973E-3,1.048292303E0
1.619284554E1,-1.292597771E0,-3.713408786E-1,5.452908665E-2,1.345985315E0
1.620292654E1,-1.758249561E0,-3.408967656E-1,-4.401962283E-1,1.844295215E0
1.621300754E1,-2.234830381E0,-4.429757023E-1,-8.255177996E-1,2.423256887E0
1.622308854E1,-2.628673099E0,-7.284320927E-1,-8.824749425E-1,2.866931740E0
1.623316917E1,-2.886290896E0,-1.132795122E0,-7.107354945E-1,3.181044619E0
1.624325017E1,-2.955325463E0,-1.499768715E0,-4.929693961E-1,3.350563179E0
1.625333117E1,-2.646932200E0,-1.706865984E0,-2.041868171E-1,3.156158078E0
1.626341117E1,-1.996297896E0,-1.753722062E0,5.918025434E-2,2.657865433E0
1.627349217E1,-1.292527020E0,-1.569942904E0,1.294345504E-1,2.037670268E0
1.628357317E1,-6.928588021E-1,-1.335499962E0,2.609027624E-2,1.504757180E0
1.629365317E1,-3.277364373E-2,-1.004814189E0,2.005428323E-1,1.025155156E0
1.630373417E1,4.041729945E-1,-9.047613126E-1,7.191154316E-1,1.224367529E0
1.631381517E1,8.556072789E-1,-1.141346090E0,1.370294988E0,1.977989653E0
1.632389517E1,1.410182354E0,-1.354499320E0,1.974261202E0,2.778666942E0
1.633397617E1,1.823336672E0,-1.477960355E0,2.205027122E0,3.220414265E0
1.634405717E1,2.063063158E0,-1.661096903E0,1.839948904E0,3.225040230E0
1.635413817E1,1.929996902E0,-1.911847730E0,1.384007294E0,3.048856503E0
1.636421817E1,1.441626341E0,-2.140545198E0,1.370801942E0,2.922211186E0
1.637429917E1,5.608567393E-1,-2.381573274E0,1.663211841E0,2.958500494E0
1.638438017E1,-4.217041165E-1,-2.388652498E0,1.852422769E0,3.052042797E0
1.639446017E1,-1.306182607E0,-1.364457713E0,1.529346271E0,2.430382248E0
1.640454117E1,-1.465580045E0,1.368531468E0,-9.941436052E-3,2.005218711E0
1.641462217E1,-1.078554595E0,5.196350384E0,-1.447326792E0,5.500917393E0
1.642470217E1,-5.102859253E-1,9.503067371E0,-7.855643597E-1,9.549125224E0
1.643478317E1,8.192066073E-1,1.233784488E1,-3.440817440E-1,1.236979822E1
1.644486417E1,1.986327808E0,1.211701192E1,-2.102983269E0,1.245752843E1
1.645494417E1,2.497111917E-2,5.918116651E0,-4.649409433E0,7.526070444E0
1.646502517E1,-2.787354838E0,-8.681214899E-1,-3.114988656E0,4.269207917E0
