"Time (s)","Linear Acceleration x (m/s^2)","Linear Acceleration y (m/s^2)","Linear Acceleration z (m/s^2)","Absolute acceleration (m/s^2)"
2.439041651E-3,2.398130250E-1,4.651518524E-2,2.006691322E-3,2.442907616E-1
1.251904166E-2,3.452897787E-1,1.517937183E-2,2.404612619E-2,3.464587433E-1
2.259904167E-2,3.540091467E-1,-6.107182860E-2,-1.577542238E-3,3.592418862E-1
3.267904167E-2,2.584615499E-1,-1.415026188E-3,6.169514179E-2,2.657266746E-1
4.275904165E-2,1.525620425E-1,-2.335670292E-2,6.216050707E-2,1.663870218E-1
5.283804165E-2,2.231595701E-1,5.340846777E-3,-1.054778866E-1,2.468892524E-1
6.291804166E-2,2.364578927E-1,1.496998304E-1,-6.599982541E-2,2.875384343E-1
7.299804167E-2,2.233057505E-1,1.525263745E-1,-7.789653383E-2,2.814207226E-1
8.307804167E-2,2.482429558E-1,1.788458616E-1,-7.893032156E-2,3.159753202E-1
9.315804165E-2,2.442843908E-1,1.743639708E-1,-1.465369984E-1,3.339921403E-1
1.032370417E-1,2.618178517E-1,1.448782164E-1,-9.700406514E-2,3.145601273E-1
1.133170417E-1,2.935612160E-1,6.554962635E-2,-6.801949024E-2,3.083854603E-1
1.233970417E-1,2.152284068E-1,-5.319621384E-2,-9.139545243E-2,2.398045725E-1
1.334770417E-1,2.015587860E-1,7.197805524E-2,-7.095596194E-2,2.254806715E-1
1.435570417E-1,2.313667220E-1,8.401337922E-2,-1.307787887E-1,2.787326668E-1
1.536360417E-1,1.609159595E-1,9.622762799E-2,-1.477251526E-1,2.386973463E-1
1.637160417E-1,2.326408303E-1,7.668623328E-2,-1.749638585E-1,3.010230657E-1
1.737960417E-1,2.470366752E-1,3.118495524E-2,-1.668724815E-1,2.997432992E-1
1.838760417E-1,1.515563214E-1,1.161140084E-2,-1.392666070E-1,2.061536587E-1
1.939560417E-1,1.742745084E-1,3.369341075E-2,-1.421949657E-1,2.274340750E-1
2.040360417E-1,2.048729879E-1,1.035921961E-1,-1.287464428E-1,2.632108105E-1
2.141150417E-1,1.874617338E-1,8.835259795E-2,-1.605236479E-1,2.621372250E-1
2.241950417E-1,1.681454569E-1,2.899400353E-2,-1.382293840E-1,2.195925990E-1
2.342750417E-1,1.985737824E-1,1.070946783E-1,-1.929324253E-1,2.968564265E-1
2.443550417E-1,2.699606842E-1,8.686331213E-2,-2.514268013E-1,3.789979451E-1
2.544340416E-1,2.550865370E-1,1.073841155E-1,-1.995268786E-1,3.411912439E-1
2.645140417E-1,3.148006421E-1,1.386491776E-2,-1.660176551E-1,3.561650489E-1
2.745940417E-1,2.401398844E-1,-1.606458181E-1,-2.104483445E-1,3.574391538E-1
2.846740417E-1,2.096413922E-1,-1.250988400E-1,-2.192203375E-1,3.281109408E-1
2.947540416E-1,2.431576324E-1,1.400291204E-2,-2.514279707E-1,3.500539104E-1
3.048330416E-1,1.963775682E-1,1.262706220E-1,-1.256262589E-1,2.651233226E-1
3.149130417E-1,2.717218655E-1,1.248994499E-1,-1.322803903E-1,3.270026704E-1
3.249930417E-1,3.276066291E-1,1.320558572E-1,-7.712711334E-2,3.615431433E-1
3.350730417E-1,3.863769937E-1,2.085643351E-1,-4.639177244E-2,4.415183571E-1
3.451530416E-1,4.913666743E-1,2.389692718E-1,1.093336137E-1,5.572264895E-1
3.552320417E-1,5.795847863E-1,1.317623270E-1,2.955182791E-1,6.637852729E-1
3.653120417E-1,5.643060118E-1,7.755746841E-3,5.249396690E-1,7.707548784E-1
3.753920417E-1,6.842470229E-1,4.127491057E-2,6.794417810E-1,9.651625461E-1
3.854720417E-1,8.402261782E-1,5.761904776E-2,1.028014187E0,1.328951900E0
3.955520416E-1,1.058079400E0,2.653934240E-2,1.256611083E0,1.642957019E0
4.056310417E-1,1.182304081E0,1.029911023E-1,1.461468283E0,1.882641668E0
4.157110417E-1,1.167863798E0,-1.589951491E-1,1.770970763E0,2.127327608E0
4.257910417E-1,1.103982967E0,-1.184862238E-1,1.742974294E0,2.066585775E0
4.358710417E-1,1.048760692E0,-1.040459400E-1,1.890911189E0,2.164779359E0
4.459510417E-1,1.149685974E0,-3.456920671E-1,1.571725720E0,1.977777182E0
4.560300417E-1,9.633393037E-1,-3.526689649E-1,1.365521321E0,1.707936325E0
4.661100417E-1,8.792265218E-1,-9.118083769E-1,1.264484943E0,1.789792157E0
4.761900417E-1,7.722189671E-1,-1.763399203E0,1.116600673E0,2.225465333E0
4.862700417E-1,6.031362015E-1,-2.042526568E0,9.443555141E-1,2.329698563E0
4.963500417E-1,6.000991577E-1,-2.032765810E0,8.228024988E-1,2.273600623E0
5.064290417E-1,5.119354248E-2,-1.592063506E0,7.779708731E-1,1.772717029E0
5.165090417E-1,7.986132985E-1,-2.625240784E0,6.490128708E-1,2.819732271E0
5.265890417E-1,9.489446282E-2,-2.204627758E0,-2.457375408E0,3.302738622E0
5.366690417E-1,-8.302683699E-1,-1.459714118E0,-1.814261209E0,2.472176087E0
5.467490417E-1,1.523649913E-1,-1.865168238E-1,8.193736915E-1,8.540356330E-1
5.568280417E-1,4.140237987E-2,7.588083780E-1,-5.483416513E-2,7.619127885E-1
5.669080417E-1,-4.986335939E-1,5.442816371E-1,-2.379746604E-1,7.755706934E-1
5.769880417E-1,7.139654964E-1,3.397360933E-1,-9.394054806E-1,1.227863999E0
5.870713333E-1,3.900619090E-1,1.570452197E0,-2.022679363E0,2.590308901E0
5.971513333E-1,-4.344043273E0,7.294851762E0,-9.475073826E-1,8.543028996E0
6.072303333E-1,-5.427079759E0,6.086946232E0,-1.762876755E0,8.343371237E0
6.173103333E-1,-4.319607174E0,-9.183122349E0,-2.416693990E0,1.043212117E1
6.273903333E-1,-3.556575937E0,-7.840035625E0,-3.165810024E0,9.172662868E0
6.374703333E-1,-2.806488097E-1,1.285019780E0,-2.109595739E0,2.486047822E0
6.475503333E-1,1.996869169E0,1.824140080E0,-1.052877717E0,2.902330959E0
6.576293333E-1,1.780574230E0,1.931516594E-1,3.557995641E-1,1.826019026E0
6.677093333E-1,9.366947114E-1,5.493318772E-1,-4.594074015E-1,1.179074915E0
6.777893333E-1,-2.195641172E-1,1.582537222E-1,-1.226228658E0,1.255742554E0
6.878693333E-1,2.597391665E-1,-5.533068144E-1,3.657012391E-1,7.122852391E-1
6.979493333E-1,1.797841642E0,-3.690762520E-2,2.162744737E0,2.812660936E0
7.080283333E-1,2.068218648E0,-6.610867864E-1,1.272508492E0,2.516712534E0
7.181083333E-1,1.862379116E0,-7.436909866E-1,-2.447762878E-1,2.020259312E0
7.281883333E-1,1.718789041E0,-3.012982517E-1,-1.224575284E0,2.131806987E0
7.382683333E-1,1.631656172E0,-8.902654803E-1,-1.419266735E0,2.338630487E0
7.483483333E-1,1.297234029E0,-1.418185439E0,-9.283764625E-1,2.134466893E0
7.584273333E-1,6.225606519E-1,-1.455060904E0,3.232231177E-2,1.582980964E0
7.685073333E-1,6.602032721E-2,-1.568934259E0,8.383631091E-1,1.780102833E0
7.785873333E-1,-6.243569165E-1,-1.521965915E0,7.696597139E-1,1.816198745E0
7.886673333E-1,-1.092746372E0,-9.510192204E-1,2.571921194E-1,1.471285145E0
7.987473333E-1,-1.351213769E0,-5.992337698E-1,-9.889395833E-2,1.481431664E0
8.088263333E-1,-2.237373335E0,5.317750275E-1,-1.655796987E0,2.833776240E0
8.189063333E-1,-3.275854622E0,1.041816539E0,-1.651084131E0,3.813487120E0
8.289863333E-1,-3.396948704E0,-4.280524385E-1,-1.213072715E0,3.632359399E0
8.390663333E-1,-3.559658005E0,-1.578789157E0,-8.462021057E-1,3.984946463E0
8.491463333E-1,-3.432254777E0,-2.116108514E0,-7.054863759E-1,4.093409230E0
8.592253333E-1,-2.605231027E0,-2.739132850E0,-8.957887602E-1,3.884908619E0
8.693053333E-1,-1.787940552E0,-2.983438291E0,-1.208327115E0,3.682076842E0
8.793853333E-1,-1.512693400E0,-3.184673141E0,-1.167769657E0,3.714036929E0
8.894653333E-1,-1.153398371E0,-3.224318433E0,-6.619573637E-1,3.487799408E0
8.995453333E-1,-7.877146733E-1,-2.508891717E0,-1.057796322E0,2.834425006E0
9.096243333E-1,-2.903493404E-1,-1.683450224E0,-1.312319845E0,2.154179837E0
9.197043333E-1,-6.330780387E-3,-5.515894872E-1,-1.265787703E0,1.380764118E0
9.297843333E-1,1.110386252E-2,1.680138946E-2,-1.181883667E0,1.182055237E0
9.398643333E-1,6.245563066E-1,2.010555162E0,-4.316402900E-1,2.149119815E0
9.499443333E-1,1.503770549E0,3.636114442E0,1.079750497E-2,3.934815204E0
9.600233333E-1,1.675507366E0,4.489107431E0,-1.348624038E0,4.977770310E0
9.701033333E-1,1.979481304E-1,1.593436432E0,-3.945972433E0,4.260155111E0
9.801833333E-1,-2.937915963E-1,-6.697459280E-2,-2.147468301E0,2.168506214E0
9.902633333E-1,3.410675043E-1,2.511199613E0,-1.622150939E0,3.008957329E0
1.000343333E0,-6.592817509E-1,1.644125944E-1,-1.952738478E0,2.067576236E0
1.010422333E0,-1.686956214E0,-3.126598011E0,-2.282085239E0,4.222481430E0
1.020502333E0,-2.264007987E0,-6.257258667E0,-1.252266601E0,6.771055296E0
1.030582333E0,-3.377397954E0,-6.379414603E0,3.067808350E0,7.843162353E0
1.040662333E0,-2.539883714E0,-3.490335755E0,-2.601122189E-1,4.324478157E0
1.050742333E0,-2.899485723E0,-2.508515157E0,-3.738824294E0,5.355228552E0
1.060821333E0,-4.299023806E0,-4.978915823E0,-4.452840661E0,7.943487798E0
1.070901333E0,-2.447726333E-1,-2.205101967E0,-2.078052496E0,3.039850408E0
1.080981333E0,2.658726618E0,1.070073794E0,-6.581035370E-1,2.940575695E0
1.091061333E0,1.069930537E0,8.729173762E-1,-2.178190742E0,2.579001940E0
1.101141333E0,-2.684310526E-1,1.479140908E0,-2.719059944E0,3.106959934E0
1.111220333E0,-1.850131538E0,4.415460581E-1,-3.125356647E0,3.658661476E0
1.121300333E0,-1.704317767E0,-8.527760571E-1,-2.747755739E0,3.343962867E0
1.131380333E0,-1.202654146E0,-1.276857067E0,-2.429007642E0,2.996134024E0
1.141460333E0,-1.211060103E0,-1.684737781E0,-2.395207227E0,3.168915528E0
1.151540333E0,-1.493456646E0,-1.509718922E0,-2.219718837E0,3.071940053E0
1.161619333E0,-1.636493574E0,-1.139667354E0,-4.823330185E0,5.219335874E0
1.171699333E0,-1.791269372E0,-1.849028753E0,-3.815995846E0,4.603192109E0
1.181779333E0,-2.007246222E0,-3.060552540E0,-3.405611354E-1,3.675867399E0
1.191859333E0,-2.316951601E0,-3.654463005E0,6.613347083E-1,4.377296903E0
1.201939333E0,-3.098681649E0,-4.385982428E0,4.190646833E-1,5.386490975E0
1.212018333E0,-3.807062470E0,-3.954421660E0,-4.309631824E-1,5.506078875E0
1.222098333E0,-4.606956308E0,-1.227998317E0,8.085798776E-1,4.835889547E0
1.232178333E0,-4.868693469E0,1.799298184E0,3.325242544E0,6.164323809E0
1.242258333E0,-4.856571606E0,3.587632254E0,3.564560895E0,7.011667942E0
1.252338333E0,-4.641262507E0,4.041167443E0,2.926019218E0,6.814245404E0
1.262417333E0,-4.128679796E0,3.944375558E0,2.247124736E0,6.136258223E0
1.272497333E0,-3.253848626E0,3.813353489E0,1.050604320E0,5.121812682E0
1.282577333E0,-1.778300833E0,3.975321947E0,-3.970609896E-1,4.373007645E0
1.292657333E0,1.756181985E-1,4.033801121E0,-1.126913919E0,4.191936094E0
1.302737333E0,1.708285688E0,3.745973099E0,-3.175517571E-1,4.129333308E0
1.312816333E0,2.346919166E0,3.204285287E0,6.515634263E-1,4.024923437E0
1.322896333E0,2.367410148E0,2.016274323E0,8.239345928E-1,3.216964590E0
1.332976333E0,1.936087947E0,5.422444671E-1,7.487511671E-1,2.145482209E0
1.343056333E0,1.291085097E0,-5.662899721E-1,6.823735750E-1,1.566275440E0
1.353136333E0,6.888441038E-1,-9.186414331E-1,8.300918571E-1,1.416848889E0
1.363215333E0,2.254393995E-1,-7.907142949E-1,9.371097176E-1,1.246686264E0
1.373295333E0,-1.714520574E-1,-3.145626605E-1,7.646417065E-1,8.444065458E-1
1.383375333E0,-4.162194282E-1,3.337707639E-1,4.502063692E-1,6.980883254E-1
1.393455333E0,-5.321562660E-1,6.979271686E-1,4.874706745E-2,8.790158706E-1
1.403535333E0,-6.340282112E-1,9.635474646E-1,-3.166661963E-1,1.196115784E0
1.413614333E0,-5.846227473E-1,1.116738667E0,-4.882097626E-1,1.351753595E0
1.423694333E0,-5.042024821E-1,7.475051254E-1,-7.801586089E-1,1.192321899E0
1.433774333E0,-2.846769565E-1,1.625251132E-1,-8.021198738E-1,8.665169784E-1
1.443854333E0,5.132159650E-2,-4.467565119E-1,-3.201607847E-1,5.520219337E-1
1.453934333E0,3.393601173E-1,-9.940518039E-1,1.359884021E-1,1.059149245E0
1.464013333E0,6.235008842E-1,-1.383453562E0,2.601192355E-1,1.539597067E0
1.474093333E0,7.998476458E-1,-1.543177859E0,5.532787478E-1,1.824081011E0
1.484173333E0,1.000273241E0,-1.317572399E0,7.676210091E-1,1.823673654E0
1.494253333E0,1.305842299E0,-9.524804395E-1,9.241138422E-1,1.861834980E0
1.504333333E0,1.617633964E0,-7.465684015E-1,9.945879936E-1,2.040418903E0
1.514412333E0,1.837067689E0,-6.434901756E-1,1.049249227E0,2.211294019E0
1.524492333E0,1.888768770E0,-5.956120044E-1,1.110079274E0,2.270347356E0
1.534572333E0,1.866149985E0,-3.829505253E-1,1.183413590E0,2.242684685E0
1.544652333E0,1.767073594E0,-2.364362580E-1,1.262369421E0,2.184497137E0
1.554732333E0,1.666839454E0,-2.741964072E-1,1.208003764E0,2.076730730E0
1.564811333E0,1.632471859E0,-3.856022376E-1,1.116101321E0,2.014779297E0
1.574891333E0,1.706045619E0,-4.999398619E-1,1.083812119E0,2.082109562E0
1.584971333E0,1.921607902E0,-8.437883019E-1,1.048821504E0,2.346184599E0
1.595047417E0,2.023399156E0,-1.519521194E0,1.351822757E0,2.868887166E0
1.605127417E0,2.372364494E0,-1.670720835E0,1.464631627E0,3.250318016E0
1.615206417E0,2.895407290E0,-1.932043428E0,1.381024629E0,3.744783599E0
1.625286417E0,3.332030577E0,-2.275435200E0,1.190398674E0,4.206790002E0
1.635366417E0,3.401587885E0,-2.462544932E0,8.475144401E-1,4.284064473E0
1.645446417E0,3.065689904E0,-2.546830207E0,3.396279198E-1,4.000018227E0
1.655526417E0,2.641753905E0,-2.618029413E0,-3.104155228E-1,3.732197677E0
1.665605417E0,2.246411961E0,-2.796951288E0,-1.192364801E0,3.780348796E0
1.675685417E0,1.845997556E0,-3.120323948E0,-2.056228348E0,4.167997546E0
1.685765417E0,1.165752953E0,-3.366131539E0,-2.479492794E0,4.340242620E0
1.695845417E0,5.508778811E-2,-3.293807328E0,-2.423608030E0,4.089752714E0
1.705925417E0,-1.174857652E0,-2.747723579E0,-2.412025866E0,3.840331255E0
1.716004417E0,-2.483427093E0,-1.828787447E0,-2.523667924E0,3.985068812E0
1.726084417E0,-3.803450060E0,-8.854836273E-1,-2.639771407E0,4.713672315E0
1.736164417E0,-4.463938676E0,1.196585906E-1,-2.388035909E0,5.063969015E0
1.746244417E0,-4.135080158E0,1.006796395E0,-2.077543496E0,4.735896311E0
1.756324417E0,-3.219162943E0,1.928992935E0,-2.586983329E0,4.558125332E0
1.766403417E0,-1.825996571E0,2.291348398E0,-3.709282991E0,4.726872249E0
1.776483417E0,-4.973945689E-1,1.942257929E0,-4.317235251E0,4.760072209E0
1.786563417E0,5.956008947E-1,9.529640043E-1,-4.306005089E0,4.450231527E0
1.796643417E0,1.393216658E0,-1.757383588E-1,-4.414887261E0,4.632835650E0
1.806723417E0,1.842448297E0,-4.870464590E-1,-4.794005814E0,5.158907028E0
1.816803417E0,1.696507641E0,-1.146083504E-1,-4.841576421E0,5.131484726E0
1.826882417E0,7.089719743E-1,5.090141559E-1,-4.024346173E0,4.117899803E0
1.836962417E0,-1.088493692E0,1.352625287E0,-2.385883257E0,2.950737637E0
1.847042417E0,-2.319988645E0,1.321731816E0,-6.066632420E-1,2.738131223E0
1.857122417E0,-2.457111114E0,5.129390994E-1,1.340325377E0,2.845518171E0
1.867202417E0,-2.004806179E0,3.226338646E-1,2.635440667E0,3.326993829E0
1.877281417E0,-1.103038056E0,1.167846841E0,1.870410267E0,2.465561551E0
1.887361417E0,6.474814850E-1,1.998893767E0,2.004670232E0,2.904050844E0
1.897441417E0,2.886021339E0,2.623020596E0,2.877930547E0,4.846838191E0
1.907521417E0,3.914518506E0,4.254516847E0,5.194178143E-1,5.804667398E0
1.917601417E0,3.323020018E0,5.180778664E0,-1.549374738E0,6.346927736E0
1.927680417E0,1.711794602E0,4.339486538E0,4.364817846E-1,4.685285533E0
1.937760417E0,4.259907103E-1,3.329022769E0,3.620719601E0,4.936949575E0
1.947840417E0,-2.940430266E-1,2.473580967E0,4.050344648E0,4.755034791E0
1.957920417E0,-9.303458047E-1,1.925391928E0,3.803008595E0,4.362975105E0
1.968000417E0,-1.545813199E0,1.606971274E0,4.389632260E0,4.923491292E0
1.978079417E0,-1.855545475E0,1.222568593E0,5.138318523E0,5.598217593E0
1.988159417E0,-2.024687297E0,4.768243566E-1,4.576575930E0,5.027103278E0
1.998239417E0,-2.190593855E0,-2.556943551E-1,3.172634894E0,3.863896118E0
2.008319417E0,-2.240577609E0,-8.589092016E-1,1.654443941E0,2.914635105E0
2.018399417E0,-2.610271912E0,-1.048967684E0,6.698079085E-1,2.891797934E0
2.028478417E0,-2.800990545E0,-8.306849840E-1,7.410290417E-1,3.014085204E0
2.038558417E0,-2.288853976E0,-5.571721163E-1,1.338357789E0,2.709334763E0
2.048638417E0,-1.083738152E0,-1.475571182E-1,1.511846139E0,1.865995775E0
2.058718417E0,8.146504569E-1,1.707419130E-1,1.546341788E0,1.756126730E0
2.068798417E0,2.124083531E0,7.772849947E-1,1.768210877E0,2.870970658E0
2.078877417E0,2.655281439E0,1.497112032E0,1.762208418E0,3.520971807E0
2.088957417E0,2.735263163E0,1.857851617E0,2.138110709E0,3.937612805E0
2.099037417E0,2.599411878E0,1.633403905E0,2.417011055E0,3.907287150E0
2.109117417E0,2.308431038E0,1.100133160E0,2.228458231E0,3.391927611E0
2.119197417E0,1.907786254E0,6.972734499E-1,1.920979619E0,2.795711242E0
2.129276417E0,1.704706607E0,2.644081682E-1,1.657694993E0,2.392465044E0
2.139356417E0,1.637733184E0,-1.891451472E-1,1.183185403E0,2.029254436E0
2.149436417E0,1.327971672E0,-6.113620645E-1,5.811394148E-1,1.573211796E0
2.159516417E0,9.722767729E-1,-6.855942214E-1,3.551831214E-1,1.241578273E0
2.169596417E0,6.811889291E-1,-8.168840933E-1,2.381910074E-1,1.089978410E0
2.179676417E0,5.449020267E-1,-9.832806480E-1,7.974315763E-2,1.126995130E0
2.189755417E0,6.008663124E-1,-1.123805612E0,-1.217356677E-1,1.280155831E0
2.199835417E0,5.628664273E-1,-1.540467090E0,-2.536837900E-1,1.659582157E0
2.209915417E0,5.046649969E-1,-1.562131609E0,-6.134752482E-3,1.641639290E0
2.219995417E0,3.706041294E-1,-1.477463341E0,1.831406415E-1,1.534205280E0
2.230075417E0,1.656387556E-1,-1.522461759E0,-1.380013061E-1,1.537650924E0
2.240154417E0,-1.007317382E-1,-1.579579700E0,-8.097434004E-1,1.777892935E0
2.250234417E0,-3.405371618E-1,-1.643523681E0,-1.349418089E0,2.153616686E0
2.260314417E0,-4.637070054E-1,-1.869871738E0,-1.890636370E0,2.699249968E0
2.270394417E0,-7.088901132E-1,-2.153917195E0,-2.265587904E0,3.205428681E0
2.280474417E0,-1.086053649E0,-2.496814878E0,-2.233625854E0,3.521744102E0
2.290553417E0,-1.279607597E0,-2.898035613E0,-1.923257986E0,3.706066284E0
2.300633417E0,-1.229499882E0,-3.176089429E0,-2.094457444E0,3.998245366E0
2.310713417E0,-1.187934950E0,-3.274849486E0,-2.807295012E0,4.474006469E0
2.320793417E0,-1.500707778E0,-3.320257208E0,-2.907448461E0,4.661489925E0
2.330873417E0,-2.025225241E0,-3.443108379E0,-1.837530788E0,4.396936659E0
2.340952417E0,-2.042807819E0,-3.473214523E0,-8.737435877E-1,4.123070550E0
2.351032417E0,-1.961632678E0,-3.830521499E0,-8.548325229E-1,4.387668670E0
2.361112417E0,-2.439969417E0,-4.584813488E0,-1.383659384E0,5.374800346E0
2.371192417E0,-2.873264469E0,-4.932448584E0,-2.008375905E0,6.051303291E0
2.381272417E0,-2.664855085E0,-4.102332827E0,-2.278864008E0,5.396647887E0
2.391352417E0,-2.442098973E0,-2.685848928E0,-2.033433563E0,4.160827311E0
2.401431417E0,-2.343164084E0,-1.460690019E0,-2.081421661E0,3.457795452E0
2.411511417E0,-2.283859869E0,-4.789296466E-1,-1.709808303E0,2.892893696E0
2.421591417E0,-2.277684624E0,9.126334190E-2,-6.421365452E-1,2.368230476E0
2.431671417E0,-2.268215643E0,5.419199467E-1,4.940973240E-1,2.383822896E0
2.441751417E0,-2.555064256E0,1.486119559E0,7.191332656E-1,3.042048216E0
2.451830417E0,-3.164410785E0,2.646401857E0,7.807775366E-1,4.198398738E0
2.461910417E0,-3.679859217E0,2.603588544E0,8.713883293E-1,4.591225848E0
2.471990417E0,-3.762886755E0,2.064699794E0,3.673922539E-1,4.307816041E0
2.482070417E0,-3.170247476E0,2.077407548E0,4.638432090E-1,3.818539210E0
2.492150417E0,-2.121461640E0,2.885693310E0,1.022935295E0,3.724811672E0
2.502229417E0,-9.574447256E-1,4.253921893E0,1.151133159E0,4.509729418E0
2.512309417E0,1.949181032E-1,5.307708267E0,1.011575398E0,5.406759186E0
2.522389417E0,7.001859480E-1,5.811917766E0,1.519810777E0,6.048013994E0
2.532469417E0,3.990075642E-1,6.014236690E0,1.716819699E0,6.267193940E0
2.542549417E0,-5.670875323E-1,5.620191658E0,1.106536446E0,5.756089423E0
2.552629417E0,-1.757548479E0,4.722605463E0,1.905209970E-1,5.042645860E0
2.562708417E0,-2.334128382E0,3.791833981E0,-6.720346744E-1,4.503086813E0
2.572788417E0,-2.454476359E0,2.707460237E0,-1.335337848E0,3.890748296E0
2.582868417E0,-2.457698175E0,1.744064215E0,-1.489012177E0,3.361427906E0
2.592948167E0,-2.368067375E0,1.177829500E0,-1.071406374E0,2.853583194E0
2.603028167E0,-1.911467076E0,9.917813301E-1,-5.160609278E-1,2.214419895E0
2.613107167E0,-1.040727788E0,8.150141537E-1,-6.491812706E-2,1.323471481E0
2.623187167E0,1.212595582E-2,4.595934892E-1,7.307616234E-2,4.655248002E-1
2.633267167E0,9.708231550E-1,-1.177135143E-1,1.418686545E-1,9.881704230E-1
2.643347167E0,1.736255259E0,-7.677247971E-1,3.104333568E-1,1.923630047E0
2.653427167E0,2.397728546E0,-9.454734287E-1,6.511970982E-1,2.658397985E0
2.663506167E0,2.940290517E0,-7.230207869E-1,9.128462577E-1,3.162492004E0
2.673586167E0,3.095082688E0,-7.517197984E-1,1.008390346E0,3.340878715E0
2.683666167E0,3.005116843E0,-8.086576456E-1,1.662077481E0,3.528052718E0
2.693746167E0,3.012649226E0,-9.053387251E-1,2.190823359E0,3.833458041E0
2.703826167E0,3.084494550E0,-1.027739367E0,2.610661336E0,4.169641165E0
2.713906167E0,3.186204527E0,-1.090989284E0,2.860143902E0,4.418436380E0
2.723985167E0,3.283146100E0,-1.158109765E0,2.930825922E0,4.550824884E0
2.734065167E0,3.382120165E0,-1.232536926E0,2.952558560E0,4.655693948E0
2.744145167E0,3.438347576E0,-1.246783960E0,2.656095371E0,4.520126869E0
2.754225167E0,3.461535294E0,-1.011540241E0,2.315714622E0,4.285787496E0
2.764305167E0,3.552966451E0,-5.814553106E-1,2.095576893E0,4.165705630E0
2.774384167E0,3.730510138E0,-3.392250466E-1,2.063546723E0,4.276681494E0
2.784464167E0,4.055993058E0,-4.123324916E-1,2.005657534E0,4.543540460E0
2.794544167E0,4.519404779E0,-7.763815999E-1,1.979966915E0,4.994802992E0
2.804624167E0,4.865569886E0,-1.165809671E0,2.057843934E0,5.409954173E0
2.814704167E0,4.735388646E0,-1.602782329E0,1.852882068E0,5.331602834E0
2.824784167E0,4.516257808E0,-2.242848668E0,9.269026718E-1,5.126997493E0
2.834863167E0,4.320871342E0,-2.635152984E0,-2.231005132E-1,5.065938634E0
2.844943167E0,3.934614801E0,-2.719331839E0,-1.138980014E0,4.916628393E0
2.855023167E0,3.252312562E0,-2.771800659E0,-1.509529180E0,4.532007750E0
2.865103167E0,1.895294262E0,-2.664245513E0,-1.607213934E0,3.643278897E0
2.875183167E0,1.190317690E-1,-1.923278744E0,-2.183621928E0,2.912279934E0
2.885262167E0,-1.826477796E0,-3.208639124E-1,-2.667984807E0,3.249171852E0
2.895342167E0,-3.882297424E0,1.154242124E0,-1.738515208E0,4.407600628E0
2.905422167E0,-5.264879166E0,2.430694271E0,-1.543918117E0,6.000909133E0
2.915502167E0,-6.227526745E0,4.587012918E0,-2.266180812E0,8.059674456E0
2.925582167E0,-6.698465586E0,6.172219101E0,-5.410902268E0,1.059450769E1
2.935661167E0,-7.115359783E0,6.185259562E0,-9.778826154E0,1.358349078E1
2.945741167E0,-5.058041514E0,2.788871898E0,-9.450536571E0,1.107584001E1
2.955821167E0,-8.695727688E-1,-1.558896052E0,-5.839235957E0,6.105979878E0
2.965901167E0,1.747819297E0,-3.244306555E0,-3.859590347E0,5.336369080E0
2.975981167E0,3.414486258E0,-3.816659212E0,-2.258500202E0,5.597001618E0
2.986061167E0,4.502901598E0,-3.468194103E0,-1.384818887E0,5.849975768E0
2.996140167E0,3.570407526E0,-1.687322542E0,-1.266860667E0,4.147264546E0
3.006220167E0,1.736108494E-1,5.375988543E-1,6.594723701E-1,8.683645906E-1
3.016300167E0,-2.805063130E0,2.795421949E0,2.655718811E0,4.768186808E0
3.026380167E0,-4.482226428E0,6.182473948E0,2.169650883E0,7.938559241E0
3.036460167E0,-4.496728692E0,7.436845547E0,1.727248208E0,8.860622269E0
3.046539167E0,-2.340562073E0,4.586483745E0,2.758684770E0,5.841609848E0
3.056619167E0,8.574251783E-1,3.271344665E0,1.094827104E0,3.554647695E0
3.066699167E0,3.140291605E0,4.045164892E0,-1.010921021E0,5.219842112E0
3.076779167E0,3.658306965E0,3.286796809E0,-2.157947096E-1,4.922683259E0
3.086859167E0,2.732288100E0,1.770318506E0,2.361802669E0,4.022130992E0
3.096939167E0,1.303118666E0,1.081085562E0,3.765294054E0,4.128474726E0
3.107018167E0,-1.227505982E-1,1.742588086E0,4.494468451E0,4.822025259E0
3.117098167E0,-1.352908877E0,3.026673481E0,4.979631522E0,5.982294282E0
3.127178167E0,-2.182373840E0,4.116015311E0,5.318945446E0,7.070750899E0
3.137258167E0,-2.682776216E0,4.349682036E0,4.952261290E0,7.116313225E0
3.147338167E0,-3.044275646E0,3.984701466E0,4.061631528E0,6.453085359E0
3.157417167E0,-2.871086381E0,2.673585855E0,3.349747933E0,5.158682927E0
3.167497167E0,-2.182700699E0,1.155703636E0,2.867178394E0,3.784249619E0
3.177577167E0,-1.373609190E0,3.758566833E-1,2.213741813E0,2.632246810E0
3.187657167E0,-3.613041329E-1,3.375153208E-1,1.481065519E0,1.561413571E0
3.197737167E0,7.605227816E-1,7.598553219E-1,1.084398887E0,1.526989181E0
3.207817167E0,1.746748672E0,1.458680331E0,1.230459703E0,2.587065966E0
3.217896167E0,2.617721849E0,1.754915186E0,1.434985951E0,3.462857154E0
3.227976167E0,3.204103439E0,1.585476032E0,2.020643948E0,4.106460162E0
3.238056167E0,3.273291788E0,1.182457278E0,2.464517198E0,4.264562036E0
3.248136167E0,3.311144907E0,5.912113899E-1,2.523443390E0,4.204875510E0
3.258216167E0,3.251834845E0,2.118779522E-1,2.342909438E0,4.013545410E0
3.268295167E0,2.742879746E0,-3.635137957E-1,1.760757724E0,3.279603534E0
3.278375167E0,2.076927491E0,-7.004970199E-1,1.159630187E0,2.479731044E0
3.288455167E0,1.306708272E0,-8.063129121E-1,5.494149077E-1,1.630792372E0
3.298535167E0,7.971807307E-1,-1.067110717E0,3.827422182E-1,1.385898267E0
3.308615167E0,6.070322013E-1,-1.221839445E0,4.099621765E-1,1.424587207E0
3.318695167E0,5.639616108E-1,-1.363759555E0,9.765317917E-2,1.478995932E0
3.328774167E0,3.413657123E-1,-1.581604006E0,-3.926253283E-1,1.664979408E0
3.338854167E0,3.669712543E-3,-1.626023549E0,-7.557105231E-1,1.793060078E0
3.348934167E0,-1.796703190E-1,-1.637656877E0,-8.648663449E-1,1.860697521E0
3.359014167E0,-3.862004077E-1,-1.722009687E0,-7.221054053E-1,1.906804745E0
3.369094167E0,-3.603311563E-1,-1.802168582E0,-5.272925520E-1,1.911985245E0
3.379174167E0,-1.844866705E-1,-1.912906076E0,-7.747187249E-1,2.072060349E0
3.389253167E0,-6.177407920E-2,-2.089032982E0,-1.195995337E0,2.407961728E0
3.399333167E0,3.333146811E-2,-2.295527987E0,-1.686190814E0,2.848473133E0
3.409413167E0,9.989967942E-2,-2.294732766E0,-2.230154947E0,3.201463650E0
3.419493167E0,-8.815437734E-2,-1.984292977E0,-2.407969944E0,3.121459445E0
3.429573167E0,-5.805109853E-1,-1.947005868E0,-2.070735290E0,2.900994570E0
3.439652167E0,-1.136883495E0,-2.437388456E0,-1.672110718E0,3.166910296E0
3.449732167E0,-1.362738631E0,-2.799575518E0,-1.670843042E0,3.533609505E0
3.459812167E0,-1.346959920E0,-2.883288351E0,-2.149383849E0,3.840247866E0
3.469892167E0,-1.503875214E0,-2.894191069E0,-2.573328034E0,4.154515588E0
3.479972167E0,-2.010261047E0,-2.903055448E0,-2.274171617E0,4.200087732E0
3.490052167E0,-2.229386623E0,-2.573686468E0,-2.108322362E0,4.004878267E0
3.500131167E0,-2.102909594E0,-2.125479847E0,-2.086559025E0,3.646041950E0
3.510211167E0,-1.898670444E0,-2.428349830E0,-1.665750117E0,3.503791633E0
3.520291167E0,-1.652258837E0,-3.115641498E0,-1.357689561E0,3.778955166E0
3.530371167E0,-1.214380737E0,-3.348681108E0,-1.073035408E0,3.720186921E0
3.540451167E0,-1.016766483E0,-2.860585951E0,-1.044064794E0,3.210426351E0
3.550530167E0,-1.186225809E0,-1.918615297E0,-1.269980741E0,2.588642001E0
3.560610167E0,-1.704612467E0,-9.885805643E-1,-1.406709693E0,2.421121094E0
3.570690167E0,-2.290350863E0,-5.291496277E-1,-1.245852790E0,2.660423947E0
3.580770167E0,-2.717654858E0,-3.695276570E-1,-8.627584237E-1,2.875160989E0
3.590850667E0,-3.131909621E0,-3.135048991E-1,-4.136203408E-1,3.174622022E0
3.600930667E0,-3.197954507E0,3.727623367E-1,-5.815360022E-1,3.271704282E0
3.611009667E0,-3.144124455E0,1.334134637E0,-4.249405503E-1,3.441803058E0
3.621089667E0,-3.461790233E0,1.277863373E0,-1.943322579E-2,3.690163149E0
3.631169667E0,-3.667819215E0,5.673167431E-1,9.003893495E-2,3.712526511E0
3.641249667E0,-3.358390410E0,2.906650901E-1,9.332039237E-2,3.372236800E0
3.651329667E0,-2.563055061E0,1.085571839E0,5.342296886E-1,2.834275714E0
3.661408667E0,-1.397527810E0,2.648627892E0,1.245085051E0,3.243231487E0
3.671488667E0,-1.419335586E-1,4.215805063E0,1.467537693E0,4.466186779E0
3.681568667E0,8.186786038E-1,5.274385570E0,1.483167300E0,5.539780053E0
3.691648667E0,1.166269847E0,5.689931983E0,1.392195150E0,5.972747999E0
3.701728667E0,5.709244752E-1,4.908602470E0,8.909541361E-1,5.021367566E0
3.711808667E0,-8.398355842E-1,3.369766753E0,1.924703126E-1,3.478174320E0
3.721887667E0,-2.068066036E0,2.185839777E0,-6.583964825E-1,3.080304950E0
3.731967667E0,-2.737390965E0,1.825681698E0,-1.210061399E0,3.505805406E0
3.742047667E0,-3.042477627E0,1.680596490E0,-1.621977861E0,3.835607756E0
3.752127667E0,-3.438465105E0,1.582421155E0,-1.759042443E0,4.173886594E0
3.762207667E0,-3.531494306E0,1.637063677E0,-1.033086061E0,4.027244259E0
3.772287667E0,-2.800061422E0,1.662602853E0,-2.686912537E-2,3.256580133E0
3.782366667E0,-1.633568797E0,1.092774439E0,2.317812896E-1,1.978996097E0
3.792446667E0,-4.920613235E-1,4.013569754E-1,1.390877187E-1,6.500439688E-1
3.802526667E0,5.000392646E-1,-2.498468471E-1,2.538288009E-1,6.139151189E-1
3.812606667E0,1.509733540E0,-5.699371728E-1,4.784393576E-1,1.683160112E0
3.822686667E0,2.415525717E0,-4.889792562E-1,4.198824164E-1,2.500033289E0
3.832766667E0,2.845290220E0,-1.911326158E-1,8.034378362E-1,2.962721801E0
3.842845667E0,2.811412622E0,-3.210384518E-2,1.374566964E0,3.129617537E0
3.852925667E0,2.754351983E0,-4.656897962E-2,2.045611266E0,3.431202263E0
3.863005667E0,2.787989845E0,-3.506063595E-1,2.745359258E0,3.928461486E0
3.873085667E0,2.891871479E0,-6.687969249E-1,3.126889787E0,4.311339666E0
3.883165667E0,3.015498574E0,-9.239977750E-1,3.148144708E0,4.456211243E0
3.893244667E0,3.182259411E0,-9.700872830E-1,3.133972227E0,4.570517062E0
3.903324667E0,3.351636876E0,-8.692117032E-1,2.983272230E0,4.570438921E0
3.913404667E0,3.559450428E0,-7.015486416E-1,2.537253344E0,4.427133653E0
3.923484667E0,3.805360345E0,-4.452292192E-1,2.282366490E0,4.459618056E0
3.933564667E0,4.076068304E0,-3.193488988E-1,2.326885728E0,4.704329254E0
3.943644667E0,4.495751038E0,-3.661108366E-1,2.416318891E0,5.117070600E0
3.953723667E0,5.048832150E0,-5.874209324E-1,2.565353016E0,5.693575812E0
3.963803667E0,5.479379010E0,-9.837563190E-1,2.698011137E0,6.186326448E0
3.973883667E0,5.598097368E0,-1.398148200E0,2.622109015E0,6.337899354E0
3.983963667E0,5.301506710E0,-1.892841355E0,2.128292942E0,6.018176853E0
3.994043667E0,4.963886139E0,-2.555508059E0,9.973829627E-1,5.671468930E0
4.004123667E0,4.586129696E0,-2.939268716E0,-4.110852805E-1,5.462680412E0
4.014202667E0,4.069274424E0,-3.159581569E0,-1.556741938E0,5.381950900E0
4.024282667E0,3.003095461E0,-3.286452700E0,-1.957447533E0,4.863224706E0
4.034362667E0,8.455559152E-1,-3.030168361E0,-1.781421199E0,3.615293431E0
4.044442667E0,-1.859170749E0,-1.918609742E0,-1.578891191E0,3.103300921E0
4.054522667E0,-4.185890123E0,5.697029918E-2,-1.327074417E0,4.391588351E0
4.064602667E0,-5.633958927E0,2.993535263E0,-1.599498240E0,6.577320213E0
4.074681667E0,-6.505668853E0,6.243284991E0,-1.783213955E0,9.191419189E0
4.084761667E0,-6.900700310E0,8.343076265E0,-4.877819803E0,1.187517210E1
4.094841667E0,-7.431623983E0,8.523053563E0,-1.116567461E1,1.589162567E1
4.104921667E0,-5.369895744E0,3.807330857E0,-1.270367476E1,1.430786151E1
4.115001667E0,-1.774264500E0,-2.341903424E0,-6.579194666E0,7.205437434E0
4.125081667E0,5.404674983E-1,-4.579159815E0,-2.120495095E0,5.075165926E0
4.135160667E0,2.343662851E0,-6.017253853E0,-1.223915792E-1,6.458721173E0
4.145240667E0,3.989492674E0,-6.486787609E0,-2.439119232E-1,7.619314819E0
4.155320667E0,3.789655893E0,-4.304183389E0,-1.682803522E0,5.976563739E0
4.165400667E0,4.701231551E-1,-1.223349489E0,-1.175961022E0,1.760819149E0
4.175480667E0,-2.677118450E0,1.135290129E0,1.012235183E0,3.079036690E0
4.185559667E0,-4.312550170E0,4.654363779E0,1.846113331E0,6.608277051E0
4.195639667E0,-4.469957215E0,6.296191767E0,2.091895194E0,7.999910861E0
4.205719667E0,-2.823546179E0,4.213970207E0,3.698028855E0,6.277370097E0
4.215799667E0,-1.996642882E-1,4.099495758E0,1.954890546E0,4.546133340E0
4.225879667E0,2.059025656E0,5.634585164E0,-2.087435523E0,6.351812629E0
4.235959667E0,2.615029206E0,4.804228793E0,-1.289629140E0,5.619798516E0
4.246038667E0,2.048695965E0,2.645103191E0,2.923293831E0,4.442901402E0
4.256118667E0,9.545936233E-1,8.780977169E-1,3.784928420E0,4.000998341E0
4.266198667E0,-4.583404309E-1,7.890911078E-1,4.789788802E0,4.875942729E0
4.276278667E0,-1.454618270E0,1.891530117E0,5.617697235E0,6.103468090E0
4.286358667E0,-1.993732138E0,3.410994593E0,5.859491882E0,7.067071322E0
4.296438667E0,-2.115669973E0,3.947026686E0,4.764627648E0,6.538865018E0
4.306517667E0,-2.237093838E0,3.633749244E0,3.419319566E0,5.468132104E0
4.316597667E0,-2.361915520E0,2.343712553E0,2.618757976E0,4.234327194E0
4.326677667E0,-2.208531944E0,6.349818921E-1,2.348222218E0,3.285568890E0
4.336757667E0,-1.576071371E0,-4.000849137E-1,2.097353862E0,2.653857970E0
4.346837667E0,-6.566084039E-1,-4.391451913E-1,1.758065081E0,1.927375398E0
4.356917667E0,4.259924644E-1,3.668563566E-1,1.481010847E0,1.584123194E0
4.366996667E0,1.479226862E0,1.479010222E0,1.424465056E0,2.530747724E0
4.377076667E0,2.270758597E0,2.158398501E0,1.563267430E0,3.501261738E0
4.387156667E0,2.692256892E0,2.366815779E0,1.997574635E0,4.103701808E0
4.397236667E0,2.923236528E0,2.237335036E0,2.913543306E0,4.694647426E0
4.407316667E0,3.154620792E0,1.909391607E0,3.153810368E0,4.852208619E0
4.417396667E0,3.564370276E0,1.358535653E0,2.721204118E0,4.685648987E0
4.427475667E0,3.429529974E0,4.767521435E-1,1.842702066E0,3.922310461E0
4.437555667E0,2.587547293E0,-2.754260767E-1,1.012558826E0,2.792227765E0
4.447635667E0,1.695454558E0,-7.006145489E-1,7.233124168E-1,1.971955313E0
4.457715667E0,1.173765392E0,-1.091819296E0,5.964301760E-1,1.710416185E0
4.467795667E0,1.016971135E0,-1.553898437E0,4.062237592E-1,1.901012463E0
4.477875667E0,1.039989869E0,-1.921191873E0,1.176763844E-1,2.187785380E0
4.487954667E0,7.976251191E-1,-2.187957053E0,-1.419084156E-1,2.333130922E0
4.498034667E0,4.811866719E-1,-2.153049468E0,-2.499380636E-1,2.220277384E0
4.508114667E0,2.435938346E-1,-1.915850441E0,-4.267474861E-1,1.977861038E0
4.518194667E0,5.031061292E-2,-1.780210826E0,-3.639448817E-1,1.817728698E0
4.528274667E0,-2.976992905E-1,-1.822923566E0,-5.727779695E-1,1.933843272E0
4.538354667E0,-5.525852680E-1,-1.956753176E0,-7.654028678E-1,2.172573364E0
4.548433667E0,-3.782277292E-1,-2.135750481E0,-1.046020029E0,2.408037424E0
4.558513667E0,-8.747902393E-2,-2.377134068E0,-1.636383208E0,2.887242449E0
4.568593667E0,4.936102509E-2,-2.511237620E0,-1.940616031E0,3.174073325E0
4.578673667E0,8.551786780E-2,-2.254693372E0,-1.799599900E0,2.886089969E0
4.588753167E0,-1.592524266E-1,-1.851327878E0,-1.572822658E0,2.434450115E0
4.598833167E0,-6.847300029E-1,-1.630623554E0,-1.685818931E0,2.443312059E0
4.608912167E0,-9.720686120E-1,-1.807799451E0,-1.871379150E0,2.777609793E0
4.618992167E0,-1.000442226E0,-2.242733477E0,-2.182479089E0,3.285415206E0
4.629072167E0,-1.235703194E0,-2.671048456E0,-2.641577904E0,3.954667630E0
4.639152167E0,-1.717461723E0,-2.949023334E0,-2.572151574E0,4.273450259E0
4.649232167E0,-2.146951407E0,-2.807777992E0,-2.025425216E0,4.073740898E0
4.659312167E0,-2.084894323E0,-2.414834576E0,-1.853762659E0,3.689803025E0
4.669391167E0,-2.042366939E0,-2.515028955E0,-2.000631852E0,3.807776407E0
4.679471167E0,-2.071528172E0,-2.729052835E0,-1.644113081E0,3.800271854E0
4.689551167E0,-1.848916487E0,-2.508679463E0,-1.202996793E0,3.340533806E0
4.699631167E0,-1.669233304E0,-1.897485214E0,-1.264360982E0,2.825844768E0
4.709711167E0,-1.745410829E0,-1.158001299E0,-1.594463203E0,2.632439719E0
4.719791167E0,-2.151610469E0,-5.843952906E-1,-1.631240435E0,2.762587704E0
4.729870167E0,-2.745388201E0,-2.640093881E-1,-1.318785111E0,3.057131254E0
4.739950167E0,-3.504079050E0,-7.730779231E-2,-7.411445242E-1,3.582435162E0
4.750030167E0,-3.931694702E0,2.396703529E-1,-3.827955741E-1,3.957549439E0
4.760110167E0,-3.505703407E0,1.186909348E0,-5.566514218E-1,3.742802557E0
4.770190167E0,-3.117671067E0,1.586647230E0,-9.187355733E-1,3.616821445E0
4.780270167E0,-3.104945771E0,6.302573419E-1,-7.530032623E-1,3.256520608E0
4.790349167E0,-3.049447508E0,-3.775102758E-1,-2.493849536E-1,3.082829377E0
4.800429167E0,-2.202360207E0,-5.460673767E-1,2.653524204E-1,2.284511320E0
4.810509167E0,-9.072358543E-1,-8.108509362E-2,6.704558531E-1,1.131000769E0
4.820589167E0,-1.585349733E-1,9.980986619E-1,7.643831134E-1,1.267128968E0
4.830669167E0,3.476280802E-1,2.378536815E0,9.655624151E-1,2.590481314E0
4.840749167E0,5.353389055E-1,3.840079358E0,1.267706759E0,4.079200613E0
4.850828167E0,1.361980247E-1,4.764793417E0,1.208627808E0,4.917579423E0
4.860908167E0,-1.021526701E0,4.784589458E0,5.353000215E-1,4.921621602E0
4.870988167E0,-2.230932627E0,4.331576425E0,1.862474133E-1,4.875889950E0
4.881068167E0,-3.218772933E0,3.303181584E0,-2.899445669E-1,4.621209325E0
4.891148167E0,-3.745230503E0,2.097090153E0,-1.087354070E0,4.427965391E0
4.901228167E0,-3.855738786E0,1.312687050E0,-1.780447930E0,4.445206824E0
4.911307167E0,-3.749421203E0,9.505681077E-1,-1.911208044E0,4.314447273E0
4.921387167E0,-3.037582338E0,7.803524441E-1,-1.212589589E0,3.362473778E0
4.931467167E0,-1.870015579E0,4.830422857E-1,-6.116681662E-1,2.025938317E0
4.941547167E0,-7.416760361E-1,4.114884460E-1,-1.665181768E-1,8.643693579E-1
4.951627167E0,2.604501879E-1,3.866825107E-1,1.213329408E-1,4.817461437E-1
4.961707167E0,1.110416073E0,1.234151343E-1,5.512670133E-1,1.245853310E0
4.971786167E0,1.842261770E0,8.715918124E-2,1.139497493E0,2.167943655E0
4.981866167E0,2.343054741E0,2.494916287E-1,1.666985342E0,2.886345738E0
4.991946167E0,2.664545767E0,4.568347728E-1,2.214354016E0,3.494548020E0
5.002026167E0,2.896341090E0,5.236880359E-1,2.613273580E0,3.936018251E0
5.012106167E0,3.082101284E0,4.499528924E-1,2.884152277E0,4.245013579E0
5.022186167E0,3.185799900E0,1.784134600E-1,3.026741016E0,4.397989716E0
5.032265167E0,3.293417319E0,-2.373981249E-1,3.005360380E0,4.464879228E0
5.042345167E0,3.440461344E0,-6.220732865E-1,2.974454629E0,4.590330029E0
5.052425167E0,3.708190731E0,-9.490951940E-1,2.742824197E0,4.708985534E0
5.062505167E0,3.852390085E0,-1.044490179E0,2.449069439E0,4.682927527E0
5.072585167E0,3.898034620E0,-9.315713811E-1,2.357125188E0,4.649573990E0
5.082665167E0,3.972896522E0,-8.292111933E-1,2.368260918E0,4.698952836E0
5.092744167E0,4.195573697E0,-8.166005033E-1,2.524833566E0,4.964318641E0
5.102824167E0,4.497189453E0,-8.325177938E-1,2.743683738E0,5.333441600E0
5.112904167E0,4.828961053E0,-9.305361316E-1,2.762329339E0,5.640498713E0
5.122984167E0,5.031807396E0,-1.094811316E0,2.518141428E0,5.732253810E0
5.133064167E0,5.026841356E0,-1.519883721E0,1.763857625E0,5.539889373E0
5.143144167E0,4.979646724E0,-2.159009535E0,6.409361118E-1,5.465254136E0
5.153223167E0,4.726361715E0,-2.616376112E0,-4.717016110E-1,5.422768797E0
5.163303167E0,4.082103215E0,-2.866395745E0,-1.389793406E0,5.177964555E0
5.173383167E0,2.922675195E0,-3.210219626E0,-1.921488911E0,4.747595179E0
5.183463167E0,9.006384408E-1,-3.163872841E0,-1.665226499E0,3.687034072E0
5.193543167E0,-1.406268813E0,-1.872353881E0,-1.607496354E0,2.840307300E0
5.203623167E0,-3.438824124E0,2.146015853E-1,-2.211446488E0,4.094149578E0
5.213702167E0,-5.031364177E0,2.344230031E0,-2.560419428E0,6.112756136E0
5.223782167E0,-6.310495811E0,4.260880079E0,-2.799231117E0,8.112530510E0
5.233862167E0,-7.373458221E0,6.028740124E0,-5.809088298E0,1.115612390E1
5.243942167E0,-7.939369293E0,6.213953018E0,-1.032205588E1,1.442884730E1
5.254022167E0,-5.676783934E0,2.908211523E0,-9.489319398E0,1.143375497E1
5.264102167E0,-1.547584906E0,-2.421921401E0,-5.069133098E0,5.827249151E0
5.274182167E0,1.087178653E0,-5.280416973E0,-2.124998328E0,5.794857956E0
5.284261167E0,2.666979963E0,-6.173040050E0,-4.473994133E-1,6.739389573E0
5.294341167E0,2.727109221E0,-5.312161506E0,-5.212149560E-2,5.971507450E0
5.304421167E0,-1.144756186E-1,-2.572831605E0,4.427336276E-2,2.575757610E0
5.314501167E0,-3.263545064E0,3.817717266E-1,1.471357679E0,3.600190197E0
5.324581167E0,-4.668707584E0,4.770135433E0,2.970818245E0,7.305941664E0
5.334661167E0,-4.233792853E0,8.165502173E0,2.218051211E0,9.461510388E0
5.344740167E0,-2.326458589E0,6.308613592E0,1.900145697E0,6.987243283E0
5.354820167E0,1.547576720E-1,4.129881691E0,1.355858213E0,4.349508502E0
5.364900167E0,2.270113649E0,4.558439329E0,-2.892556772E0,5.856591993E0
5.374980167E0,2.705573341E0,3.969827611E0,-9.976519346E-1,4.906624883E0
5.385060167E0,2.032027892E0,2.123179552E0,3.122634768E0,4.288108751E0
5.395140167E0,1.037559181E0,2.716996461E-2,4.318687115E0,4.441657985E0
5.405219167E0,-4.288114071E-2,-4.036446986E-1,5.294604657E0,5.310141835E0
5.415299167E0,-1.095244887E0,1.042390151E0,5.580345806E0,5.781556703E0
5.425379167E0,-2.180080562E0,3.152155021E0,5.690886249E0,6.861123729E0
5.435459167E0,-2.784021340E0,3.848459002E0,4.217579401E0,6.352116775E0
5.445539167E0,-3.142567341E0,3.290320926E0,2.419471125E0,5.153230231E0
5.455619167E0,-3.321652939E0,1.774038797E0,1.872560288E0,4.205600306E0
5.465699167E0,-2.806212108E0,1.109187573E-2,1.829029521E0,3.349671389E0
5.475778167E0,-1.670540156E0,-8.453471696E-1,1.670726098E0,2.509311050E0
5.485858167E0,-3.031787163E-1,-6.764193553E-1,1.267709683E0,1.468519090E0
5.495938167E0,9.066406077E-1,2.164317638E-2,1.065908822E0,1.399509641E0
5.506018167E0,1.901965935E0,7.754638794E-1,1.442303157E0,2.509792231E0
5.516098167E0,2.656302947E0,1.156646499E0,2.025406505E0,3.534974962E0
5.526178167E0,3.080526629E0,1.280426792E0,2.400807398E0,4.110111099E0
5.536257167E0,3.406050480E0,1.226573059E0,2.516156298E0,4.408707731E0
5.546337167E0,3.678853496E0,9.907873034E-1,2.628137494E0,4.628469424E0
5.556417167E0,3.449330986E0,3.238682118E-1,2.118930527E0,4.061113326E0
5.566497167E0,2.556872799E0,-2.204701433E-1,1.400646423E0,2.923699027E0
5.576577167E0,1.598573796E0,-4.804958233E-1,9.239689775E-1,1.907887074E0
5.586657167E0,1.129449345E0,-5.632666692E-1,7.754124239E-1,1.481279714E0
5.596736458E0,8.486309659E-1,-6.876436704E-1,7.017582643E-1,1.298265379E0
5.606816458E0,6.956052393E-1,-8.820048264E-1,5.915642694E-1,1.269546158E0
5.616896458E0,6.861672485E-1,-1.165897964E0,4.134611504E-1,1.414600183E0
5.626976458E0,6.153527892E-1,-1.336298984E0,1.058075599E-1,1.474974328E0
5.637056458E0,4.016288710E-1,-1.395987069E0,-1.202713788E-1,1.457583909E0
5.647136458E0,9.284267485E-2,-1.518172241E0,-1.712427270E-1,1.530617780E0
5.657215458E0,-1.397981554E-1,-1.578195080E0,-4.261794291E-2,1.584947798E0
5.667295458E0,-2.180625522E-1,-1.633457699E0,9.418694973E-2,1.650638214E0
5.677375458E0,-1.234358919E-1,-1.804658327E0,-1.535701025E-1,1.815382018E0
5.687455458E0,3.105280817E-2,-1.987345224E0,-8.832663631E-1,2.175009146E0
5.697535458E0,2.009126687E-1,-2.186318371E0,-1.635873184E0,2.737961832E0
5.707615458E0,2.443732685E-1,-2.269164646E0,-2.045378255E0,3.064702056E0
5.717694458E0,2.993072748E-2,-2.171971643E0,-1.925096351E0,2.902473536E0
5.727774458E0,-3.036119950E-1,-2.218751707E0,-1.507905700E0,2.699781284E0
5.737854458E0,-6.118906528E-1,-2.476088253E0,-1.158150988E0,2.801202762E0
5.747934458E0,-8.532186913E-1,-2.474559206E0,-1.434234291E0,2.984703235E0
5.758014458E0,-1.381793538E0,-2.371462854E0,-1.717996159E0,3.238008686E0
5.768094458E0,-2.066553946E0,-2.356959420E0,-1.581490570E0,3.510984953E0
5.778174458E0,-2.237811876E0,-2.098907175E0,-1.546531237E0,3.435836461E0
5.788253458E0,-2.249594600E0,-2.258633226E0,-1.793184335E0,3.657541521E0
5.798333458E0,-2.525973188E0,-3.441907945E0,-1.966649004E0,4.700529668E0
5.808413458E0,-2.835321887E0,-4.456054291E0,-1.937028179E0,5.625615363E0
5.818493458E0,-2.606720313E0,-4.225863444E0,-1.675300959E0,5.240185678E0
5.828573458E0,-2.339808952E0,-3.067865653E0,-1.579673256E0,4.169157372E0
5.838653458E0,-2.292020828E0,-1.708954609E0,-1.482224729E0,3.220384368E0
5.848733458E0,-2.583691639E0,-5.132984108E-1,-1.120133561E0,2.862452958E0
5.858812458E0,-3.108852296E0,1.304624909E-1,-4.990358824E-1,3.151352070E0
5.868892458E0,-3.365611137E0,3.435221654E-1,-1.264811218E-2,3.383120715E0
5.878972458E0,-3.443338174E0,3.411452723E-1,-5.085323453E-3,3.460199957E0
5.889052458E0,-3.500093588E0,5.174698144E-1,-2.159996545E-1,3.544726504E0
5.899132458E0,-3.557151888E0,1.300678039E-1,-5.048217022E-1,3.595148417E0
5.909212458E0,-3.551372500E0,-8.294187695E-1,-3.977849114E-1,3.668571243E0
5.919291458E0,-3.181298713E0,-8.692669594E-1,5.359464312E-1,3.341186185E0
5.929371458E0,-2.266467910E0,4.464711678E-1,1.659469038E0,2.844301458E0
5.939451458E0,-1.195321153E0,2.324486908E0,1.995862863E0,3.288692842E0
5.949531458E0,-8.938229263E-2,4.071450173E0,1.652915479E0,4.395091044E0
5.959611458E0,3.913488811E-1,5.229167882E0,1.679837229E0,5.506287660E0
5.969691458E0,-9.826245904E-2,6.039352820E0,2.087554367E0,6.390721495E0
5.979770458E0,-1.159252603E0,5.778989756E0,1.529075106E0,6.089224899E0
5.989850458E0,-2.361494520E0,4.577313849E0,5.959270231E-1,5.184938520E0
5.999930458E0,-2.993489070E0,3.479042150E0,-1.438615318E-1,4.591884933E0
6.010010458E0,-3.008269077E0,2.460072729E0,-9.765949416E-1,4.006916314E0
6.020090458E0,-3.063412414E0,1.566405339E0,-1.809028243E0,3.887248961E0
6.030170458E0,-3.088915045E0,9.951797318E-1,-1.776213084E0,3.699555618E0
6.040250458E0,-2.593271132E0,5.281307504E-1,-9.343780446E-1,2.806606418E0
6.050329458E0,-1.737081470E0,1.341389278E-1,-1.145301439E-1,1.746013299E0
6.060409458E0,-7.312317395E-1,-3.054918748E-1,4.806963828E-1,9.268733219E-1
6.070489458E0,1.738546783E-1,-8.538779649E-1,7.284949502E-1,1.135798363E0
6.080569458E0,9.815060180E-1,-1.049285772E0,1.268339428E0,1.916517571E0
6.090649458E0,1.778933501E0,-1.177559066E0,1.488038323E0,2.601058978E0
6.100729458E0,2.310579305E0,-9.109707633E-1,1.572800438E0,2.939786672E0
6.110808458E0,2.663635356E0,-4.826891139E-1,1.779425252E0,3.239490132E0
6.120888458E0,2.979560418E0,-2.236922514E-1,2.280143086E0,3.758573000E0
6.130968458E0,3.305706997E0,-2.124334377E-1,2.473443265E0,4.134095826E0
6.141048458E0,3.396644064E0,-4.605383992E-1,2.352471389E0,4.157331855E0
6.151128458E0,3.439639810E0,-6.668746528E-1,2.553811490E0,4.335642623E0
6.161208458E0,3.463502882E0,-9.662933171E-1,2.767728074E0,4.537608806E0
6.171288458E0,3.459440237E0,-1.054063825E0,2.900977932E0,4.636210765E0
6.181367458E0,3.406998314E0,-8.224705231E-1,2.918336561E0,4.560787603E0
6.191447458E0,3.270990323E0,-4.846224958E-1,2.805102891E0,4.336224036E0
6.201527458E0,3.132149942E0,-2.856949568E-1,2.591968372E0,4.075571728E0
6.211607458E0,3.260059538E0,-1.156345367E-1,2.521682501E0,4.123134994E0
6.221687458E0,3.708262652E0,-1.521734950E-1,2.682430646E0,4.579279729E0
6.231767458E0,4.349348452E0,-3.783198228E-1,2.943846209E0,5.265566289E0
6.241846458E0,5.033484378E0,-6.891104445E-1,2.995283580E0,5.897674280E0
6.251926458E0,5.467901511E0,-1.050239746E0,2.549816964E0,6.123929866E0
6.262006458E0,5.366135985E0,-1.549475895E0,1.510948884E0,5.786126294E0
6.272086458E0,4.816395387E0,-2.030583630E0,3.517664471E-1,5.238766461E0
6.282166458E0,4.023007745E0,-2.313281888E0,-1.621424130E-1,4.643506711E0
6.292246458E0,2.874542670E0,-2.491656464E0,1.649265647E-2,3.804158186E0
6.302326458E0,1.190560350E0,-2.236710261E0,3.900823742E-2,2.534132668E0
6.312405458E0,-7.201793325E-1,-5.479007712E-1,-1.489120643E0,1.742507910E0
6.322485458E0,-2.609128196E0,2.065483613E0,-3.298425167E0,4.685443531E0
6.332565458E0,-4.187382333E0,3.470126900E0,-4.292921944E0,6.928573469E0
6.342645458E0,-5.508656019E0,3.458563154E0,-3.045680732E0,7.182139051E0
6.352725458E0,-6.663711491E0,3.517787555E0,-3.168514653E0,8.174311299E0
6.362805458E0,-7.444490781E0,4.126349973E0,-6.898754357E0,1.095627760E1
6.372884458E0,-6.654415002E0,3.180185988E0,-9.026668400E0,1.165656743E1
6.382964458E0,-3.002373914E0,-4.976930693E-1,-5.548479066E0,6.328314741E0
6.393044458E0,-6.294410706E-2,-4.062572930E0,-2.396740367E0,4.717290023E0
6.403124458E0,1.179562907E0,-6.156562597E0,-1.537422445E0,6.454324088E0
6.413204458E0,1.420423168E0,-6.421866558E0,-1.374300623E0,6.719127493E0
6.423284458E0,1.210592326E0,-4.777612560E0,-1.555271071E0,5.168170242E0
6.433364458E0,2.663710785E-1,-2.027817312E0,-2.252232279E0,3.042293024E0
6.443443458E0,-1.924889359E0,5.070673254E-1,-1.319243241E0,2.388036651E0
6.453523458E0,-3.813168132E0,2.632220020E0,1.906195226E0,5.010230901E0
6.463603458E0,-4.566814004E0,5.793603702E0,3.451155902E0,8.144452778E0
6.473683458E0,-3.670545187E0,6.958540968E0,2.678653345E0,8.310798885E0
6.483763458E0,-1.073421909E0,4.411079262E0,3.025642324E0,5.455672857E0
6.493843458E0,2.152667060E0,3.997627613E0,1.788047556E0,4.879765985E0
6.503923458E0,4.561142789E0,5.856329123E0,-4.822571216E0,8.851994548E0
6.514002458E0,4.599081278E0,5.710358647E0,-4.820276184E0,8.774668482E0
6.524082458E0,3.575057817E0,2.704681348E0,3.334945414E0,5.587324986E0
6.534162458E0,2.172881470E0,-9.557390928E-2,5.168798888E0,5.607765170E0
6.544242458E0,1.393409032E-1,-5.300910294E-2,4.906382282E0,4.908646753E0
6.554322458E0,-1.536503263E0,2.487168142E0,5.656765407E0,6.367561740E0
6.564402458E0,-2.576118325E0,5.151144390E0,6.370500523E0,8.588012055E0
6.574481458E0,-2.657924380E0,5.812257489E0,4.278544225E0,7.691088338E0
6.584561458E0,-2.569437881E0,5.070215417E0,2.478544376E0,6.200990052E0
6.594645583E0,-2.833986382E0,3.277360280E0,2.061111943E0,4.797994546E0
6.604725583E0,-2.672072888E0,1.121436028E0,2.435570264E0,3.785445125E0
6.614805583E0,-1.838603752E0,-3.925297263E-1,2.457396751E0,3.094081792E0
6.624885583E0,-6.598980474E-1,-9.236159518E-1,1.626486649E0,1.983429020E0
6.634965583E0,4.026293296E-1,-3.339654762E-1,8.543439880E-1,1.001771913E0
6.645044583E0,1.288821639E0,1.061502652E0,8.154877782E-1,1.858189822E0
6.655124583E0,1.963750539E0,2.034060384E0,1.257803037E0,3.094476742E0
6.665204583E0,2.368818158E0,2.216647587E0,1.893378714E0,3.756289252E0
6.675284583E0,2.710256960E0,2.018432823E0,2.399734726E0,4.144670145E0
6.685364583E0,3.425939199E0,1.878245243E0,2.977362449E0,4.912184010E0
6.695444583E0,3.715451218E0,1.495736183E0,2.689609272E0,4.824500236E0
6.705524583E0,3.178863348E0,5.457966506E-1,1.914780693E0,3.750926722E0
6.715603583E0,2.297217833E0,-1.344523385E-1,1.172523590E0,2.582653436E0
6.725683583E0,1.503218572E0,-3.704693511E-1,8.640537281E-1,1.772992516E0
6.735763583E0,1.020806909E0,-5.299942580E-1,9.432726829E-1,1.487516055E0
6.745843583E0,9.279548782E-1,-8.651373634E-1,1.117688255E0,1.690795656E0
6.755923583E0,8.516142154E-1,-1.358437127E0,7.078649502E-1,1.752618324E0
6.766003583E0,6.845341212E-1,-1.726878372E0,6.361894883E-2,1.858693962E0
6.776082583E0,4.544140255E-1,-1.877703206E0,-7.456017105E-1,2.070792927E0
6.786162583E0,1.409500569E-1,-1.941190227E0,-1.212741762E0,2.293213684E0
6.796242583E0,-1.698358870E-1,-2.069869025E0,-1.219544340E0,2.408420729E0
6.806322583E0,-5.681353533E-1,-2.174689136E0,-1.131361457E0,2.516352393E0
6.816402583E0,-7.410153008E-1,-2.378859874E0,-1.047394198E0,2.702797177E0
6.826482583E0,-7.127884519E-1,-2.814743780E0,-1.280367150E0,3.173356262E0
6.836562583E0,-4.742963129E-1,-3.297477626E0,-1.763510885E0,3.769388057E0
6.846641583E0,-1.369482225E-1,-3.424025990E0,-2.015908288E0,3.975750875E0
6.856721583E0,1.462002718E-1,-3.081149358E0,-2.218603188E0,3.799612610E0
6.866801583E0,3.028237903E-1,-2.454712002E0,-2.290119313E0,3.370750618E0
6.876881583E0,-2.568681836E-3,-2.222879841E0,-1.815017254E0,2.869754174E0
6.886961583E0,-7.415678626E-1,-2.683826961E0,-1.329321794E0,3.085441052E0
6.897041583E0,-1.458350548E0,-3.115568408E0,-1.515951469E0,3.759210247E0
6.907121583E0,-2.146274884E0,-3.270970443E0,-1.692201167E0,4.262544816E0
6.917200583E0,-2.507367933E0,-2.876640651E0,-1.672890737E0,4.166595589E0
6.927280583E0,-2.366325490E0,-1.924309900E0,-2.191370366E0,3.755605011E0
6.937360583E0,-2.102882112E0,-1.556203701E0,-2.526091302E0,3.636622115E0
6.947440583E0,-2.036003414E0,-1.878572395E0,-2.157902657E0,3.511536419E0
6.957520583E0,-1.579682611E0,-2.067291865E0,-1.746402517E0,3.133530686E0
6.967600583E0,-1.073581538E0,-1.810510805E0,-1.617581924E0,2.654637070E0
6.977680583E0,-1.164309275E0,-1.356484450E0,-1.688229153E0,2.458817566E0
6.987759583E0,-1.555278672E0,-7.437430269E-1,-1.556883733E0,2.322914634E0
6.997839583E0,-2.010645209E0,-2.392236257E-1,-1.054340690E0,2.282883350E0
7.007919583E0,-2.660546857E0,8.403325975E-2,-2.534048778E-1,2.673908225E0
7.017999583E0,-3.231476009E0,6.043980306E-1,9.342966221E-2,3.288839200E0
7.028079583E0,-3.257137685E0,1.535851883E0,-3.434864974E-1,3.617425863E0
7.038159583E0,-3.052303873E0,1.812645623E0,-4.243201607E-1,3.575232956E0
7.048238583E0,-2.697641593E0,7.977362162E-1,-1.520322847E-1,2.817226837E0
7.058318583E0,-2.417019680E0,-1.215723842E-1,1.764198518E-1,2.426497052E0
7.068398583E0,-1.883726715E0,-3.911570925E-1,3.998724039E-1,1.965026246E0
7.078478583E0,-1.065952091E0,6.914040148E-2,7.244442916E-1,1.290679584E0
7.088558583E0,-5.288572669E-1,1.415731362E0,1.191898851E0,1.924735870E0
7.098638583E0,-2.565144271E-1,3.160205467E0,1.503743652E0,3.509122856E0
7.108718583E0,-2.414204246E-1,4.685909507E0,1.909519368E0,5.065796675E0
7.118797583E0,-1.363344403E0,5.923265709E0,1.521060766E0,6.265573435E0
7.128877583E0,-2.762586617E0,6.202036393E0,5.635197075E-1,6.812833089E0
7.138957583E0,-3.815542687E0,5.603504289E0,4.157384947E-2,6.779332909E0
7.149037583E0,-4.261946611E0,4.049171989E0,-2.767545640E-1,5.885284683E0
7.159117583E0,-4.165695595E0,2.599552796E0,-1.071354188E0,5.025782956E0
7.169197583E0,-3.798782228E0,1.649080290E0,-1.758502014E0,4.499171207E0
7.179277583E0,-3.203295938E0,9.909115568E-1,-1.695406903E0,3.757314885E0
7.189356583E0,-2.295396425E0,6.903708118E-1,-1.023613426E0,2.606384671E0
7.199436583E0,-1.241676709E0,3.475245845E-1,-5.052413861E-1,1.384847733E0
7.209516583E0,-4.377284110E-2,2.148129621E-1,-3.965298066E-1,4.530966319E-1
7.219596583E0,8.948263085E-1,-9.552450031E-2,-5.936648816E-2,9.018666378E-1
7.229676583E0,1.820411310E0,-1.834183842E-1,7.830980042E-1,1.990171381E0
7.239756583E0,2.529653426E0,2.293131799E-2,1.413296874E0,2.897771619E0
7.249836583E0,2.921934353E0,3.594800940E-1,1.866414572E0,3.485746642E0
7.259915583E0,3.098574060E0,5.361885059E-1,2.116397659E0,3.790487880E0
7.269995583E0,3.235324647E0,6.628006053E-1,2.445949072E0,4.109658997E0
7.280075583E0,3.429330584E0,4.808823243E-1,2.780147267E0,4.440807910E0
7.290155583E0,3.602421032E0,-4.750862718E-3,3.072060738E0,4.734450025E0
7.300235583E0,3.721275045E0,-6.533763555E-1,3.218632308E0,4.963303593E0
7.310315583E0,3.881333218E0,-1.145795529E0,3.252457281E0,5.191923854E0
7.320395583E0,4.036974404E0,-1.451077196E0,3.212001273E0,5.359080103E0
7.330474583E0,4.116591847E0,-1.444476274E0,3.128307444E0,5.368346822E0
7.340554583E0,4.105279824E0,-1.291879441E0,2.908436641E0,5.194350644E0
7.350634583E0,4.099285258E0,-1.011813014E0,2.729623523E0,5.027797707E0
7.360714583E0,4.235921824E0,-7.860075787E-1,2.657044082E0,5.061691898E0
7.370794583E0,4.563569384E0,-6.862616810E-1,2.649228986E0,5.321234334E0
7.380874583E0,4.893310831E0,-6.258321691E-1,2.616980422E0,5.584330159E0
7.390954583E0,5.059283463E0,-6.920811224E-1,2.241440073E0,5.576681723E0
7.401033583E0,5.052873160E0,-1.090528816E0,1.408207750E0,5.357595481E0
7.411113583E0,4.847618349E0,-1.719923693E0,4.373933655E-1,5.162252815E0
7.421193583E0,4.323594975E0,-2.240450724E0,-6.626868770E-1,4.914493550E0
7.431273583E0,3.407207644E0,-2.677289481E0,-1.492350060E0,4.583017739E0
7.441353583E0,1.811773219E0,-2.954586375E0,-1.685911609E0,3.854140734E0
7.451433583E0,-4.331564730E-1,-2.611209513E0,-1.889365185E0,3.252036355E0
7.461513583E0,-2.740188857E0,-1.159899013E0,-2.202482707E0,3.702017121E0
7.471592583E0,-4.521119183E0,6.382437614E-1,-2.060918692E0,5.009516905E0
7.481672583E0,-5.779889057E0,2.457065798E0,-1.530420989E0,6.464246147E0
7.491752583E0,-6.808414291E0,4.578235955E0,-2.181647615E0,8.489660531E0
7.501832583E0,-7.448470396E0,5.974901301E0,-6.658816202E0,1.164126239E1
7.511912583E0,-7.388299624E0,5.144664506E0,-1.103730601E1,1.424347809E1
7.521992583E0,-4.612415269E0,5.573106954E-1,-8.429027996E0,9.624628969E0
7.532072583E0,-9.251914841E-1,-3.600517471E0,-3.398056751E0,5.036516159E0
7.542151583E0,1.360196262E0,-5.651638568E0,-1.351931807E0,5.968154823E0
7.552231583E0,2.696570383E0,-6.859890254E0,-1.010237482E0,7.439769209E0
7.562311583E0,3.575789888E0,-6.691437818E0,-1.094689110E0,7.665504396E0
7.572391583E0,3.657547411E0,-4.828323122E0,-1.876682282E0,6.341316396E0
7.582471583E0,1.911396325E0,-2.513509556E0,-1.972837405E0,3.723339042E0
7.592548333E0,-5.976228619E-1,-9.172161743E-1,2.543901336E-1,1.123900768E0
7.602628333E0,-2.469349337E0,1.842948526E0,2.872750499E0,4.212699947E0
7.612707333E0,-3.703229368E0,5.440200911E0,4.114827157E0,7.761539554E0
7.622787333E0,-4.023913479E0,7.565445700E0,4.169243100E0,9.529450999E0
7.632867333E0,-3.691878169E0,6.701982687E0,2.354032304E0,8.005498387E0
7.642947333E0,-2.619398831E0,5.409604186E0,-6.585444170E-1,6.046383087E0
7.653027333E0,-7.827597427E-1,5.403931802E0,-3.201786772E0,6.329820714E0
7.663107333E0,1.029402316E0,4.448839704E0,-1.037413586E0,4.682741802E0
7.673187333E0,2.596346768E0,2.660935696E0,9.024361673E-1,3.825700766E0
7.683266333E0,3.157121061E0,4.598840958E-1,2.715678499E0,4.189727495E0
7.693346333E0,2.603536504E0,-1.125053408E0,3.898920473E0,4.821382411E0
7.703426333E0,1.555836496E0,-8.980209348E-1,5.130449924E0,5.435861039E0
7.713506333E0,4.337657529E-1,9.850658029E-1,6.496705656E0,6.585263225E0
7.723586333E0,-6.791488355E-1,2.833776175E0,6.038846451E0,6.705161968E0
7.733666333E0,-2.032474034E0,3.844964122E0,3.876201117E0,5.825773330E0
7.743746333E0,-3.854581622E0,3.468906586E0,2.157089310E0,5.616417602E0
7.753825333E0,-4.531238959E0,1.683343512E0,1.928637132E0,5.204364809E0
7.763905333E0,-3.409441280E0,5.302605987E-2,1.853099292E0,3.880860548E0
7.773985333E0,-1.545167082E0,-3.338844922E-1,1.198223126E0,1.983622652E0
7.784065333E0,-6.368787289E-3,3.265234324E-1,7.964293635E-1,8.607890824E-1
7.794145333E0,1.057243833E0,1.287428833E0,1.106675317E0,1.999991945E0
7.804225333E0,1.882962484E0,1.991846118E0,1.629484516E0,3.188764410E0
7.814305333E0,2.437590185E0,2.142106112E0,1.921504991E0,3.771292343E0
7.824384333E0,2.965934651E0,2.031499888E0,2.264536283E0,4.248750961E0
7.834464333E0,3.284267596E0,1.577008972E0,2.811273458E0,4.601807188E0
7.844544333E0,3.044490239E0,8.007305753E-1,2.727962329E0,4.165557435E0
7.854624333E0,2.486713228E0,1.412544045E-1,2.018283573E0,3.205801626E0
7.864704333E0,1.882402321E0,-2.850014770E-1,1.356337538E0,2.337587615E0
7.874784333E0,1.286976258E0,-2.517316970E-1,8.911846626E-1,1.585524153E0
7.884864333E0,9.062377346E-1,-2.164203617E-1,8.211129458E-1,1.241906226E0
7.894943333E0,7.421192551E-1,-4.565535218E-1,8.822299442E-1,1.239964427E0
7.905023333E0,7.375671977E-1,-8.217782128E-1,5.931121735E-1,1.253438013E0
7.915103333E0,7.134848553E-1,-1.085013137E0,7.205289960E-2,1.300579012E0
7.925183333E0,6.390883917E-1,-1.202367632E0,-3.787883310E-1,1.413365662E0
7.935263333E0,4.619809073E-1,-1.326339422E0,-4.069580233E-1,1.462264495E0
7.945343333E0,1.771086538E-1,-1.492190723E0,-3.217429682E-1,1.536723517E0
7.955423333E0,-4.398158669E-2,-1.543254458E0,-2.818649574E-1,1.569400062E0
7.965502333E0,-1.670409179E-1,-1.641953119E0,-3.707660973E-1,1.691561472E0
7.975582333E0,-1.576350868E-1,-1.916621397E0,-7.997996986E-1,2.082778422E0
7.985662333E0,-1.412938732E-1,-2.336415812E0,-1.582453022E0,2.825413310E0
7.995742333E0,-4.703149438E-2,-2.656469008E0,-2.277979324E0,3.499747041E0
8.005822333E0,1.586478245E-1,-2.727201607E0,-2.542508529E0,3.731909345E0
8.015902333E0,3.089218515E-1,-2.584983289E0,-2.308074943E0,3.479192615E0
8.025982333E0,2.125094515E-1,-2.359321110E0,-1.769311323E0,2.956690536E0
8.036061333E0,-1.511692357E-1,-2.266881309E0,-1.080310514E0,2.515685555E0
8.046141333E0,-7.616928095E-1,-2.280499474E0,-8.290819699E-1,2.543271653E0
8.056221333E0,-1.439319030E0,-2.048139895E0,-9.170100600E-1,2.665975196E0
8.066301333E0,-1.779022379E0,-1.466069457E0,-1.043384762E0,2.530401557E0
8.076381333E0,-1.757107015E0,-1.138895522E0,-1.384186803E0,2.510075930E0
8.086461333E0,-1.820224199E0,-1.570964413E0,-1.677637507E0,2.931827574E0
8.096541333E0,-1.970502904E0,-2.294297149E0,-1.675755288E0,3.457576736E0
8.106621333E0,-1.622136905E0,-2.520771505E0,-1.670762351E0,3.431772713E0
8.116700333E0,-1.077614363E0,-2.229143963E0,-1.746458650E0,3.029926293E0
8.126780333E0,-1.000944502E0,-1.772082903E0,-1.725414521E0,2.668187209E0
8.136860333E0,-1.358397074E0,-1.318114436E0,-1.496843353E0,2.413132466E0
8.146940333E0,-1.705371435E0,-9.763575447E-1,-1.206338477E0,2.305822696E0
8.157020333E0,-2.152354234E0,-9.116288674E-1,-8.017643631E-1,2.471137802E0
8.167100333E0,-2.694212201E0,-9.375963521E-1,-4.688958246E-1,2.890973814E0
8.177180333E0,-2.938676101E0,-4.019563150E-1,-6.252930558E-1,3.031233662E0
8.187259333E0,-3.199163711E0,2.497872055E-2,-8.087196261E-1,3.299893910E0
8.197339333E0,-3.355235837E0,-7.396844745E-2,-9.119188893E-1,3.477739915E0
8.207419333E0,-3.152007086E0,-5.532027340E-1,-6.009592831E-1,3.256122540E0
8.217499333E0,-2.774096861E0,-7.250845617E-1,-7.331706762E-2,2.868228793E0
8.227579333E0,-1.948306873E0,-2.115692192E-1,2.990933033E-1,1.982452524E0
8.237659333E0,-1.155618559E0,9.442668557E-1,8.880857114E-1,1.736603115E0
8.247739333E0,-8.269068056E-1,2.497805396E0,1.281609099E0,2.926658256E0
8.257818333E0,-7.657823521E-1,3.903590352E0,1.271272537E0,4.176191341E0
8.267898333E0,-1.458554031E0,5.011473119E0,1.417917051E0,5.408579430E0
8.277978333E0,-2.887893618E0,5.088526558E0,7.303944182E-1,5.896313092E0
8.288058333E0,-4.137345369E0,4.576177735E0,3.083236814E-1,6.176899939E0
8.298138333E0,-4.958488575E0,3.914315900E0,-1.354434416E-1,6.318767509E0
8.308218333E0,-5.030060248E0,3.207027924E0,-1.087391638E0,6.063740989E0
8.318298333E0,-4.470344886E0,2.379037337E0,-1.966468764E0,5.432384508E0
8.328377333E0,-3.728527932E0,1.744992461E0,-2.118373725E0,4.629732872E0
8.338457333E0,-2.855359125E0,1.254247930E0,-1.387100178E0,3.413247795E0
8.348537333E0,-1.721029694E0,8.455907062E-1,-3.917387442E-1,1.957147438E0
8.358617333E0,-4.770719862E-1,3.908945525E-1,2.631475085E-1,6.705541308E-1
8.368697333E0,7.302757198E-1,3.273475975E-2,7.851696727E-1,1.072784045E0
8.378777333E0,1.615087502E0,-1.681311312E-1,1.190049011E0,2.013204501E0
8.388857333E0,2.265147609E0,-2.756962180E-3,1.556955946E0,2.748638410E0
8.398937333E0,2.840832887E0,1.687249160E-1,1.837671414E0,3.387600303E0
8.409016333E0,3.174701300E0,1.532531834E-1,1.932982491E0,3.720031746E0
8.419096333E0,3.308845782E0,4.810866845E-1,2.328063942E0,4.074283560E0
8.429176333E0,3.443711811E0,6.172005093E-1,2.921923536E0,4.558258950E0
8.439256333E0,3.642313660E0,3.671417007E-1,3.031907616E0,4.753283667E0
8.449336333E0,3.751539064E0,-1.640056282E-2,2.789279741E0,4.674868533E0
8.459416333E0,3.825389398E0,-5.269382107E-1,2.869541547E0,4.810980837E0
8.469496333E0,3.932236154E0,-9.535358620E-1,3.003723451E0,5.039252562E0
8.479575333E0,3.973370731E0,-1.269366491E0,2.894875193E0,5.077328889E0
8.489655333E0,3.817706156E0,-1.207250642E0,2.734970802E0,4.848958620E0
8.499735333E0,3.576079910E0,-1.003378405E0,2.511127692E0,4.483400276E0
8.509815333E0,3.526426524E0,-7.510953158E-1,2.270452203E0,4.260842805E0
8.519895333E0,3.731431659E0,-5.038691908E-1,2.317684549E0,4.421439591E0
8.529975333E0,4.171049305E0,-4.028968397E-1,2.549775741E0,4.905235418E0
8.540055333E0,4.680296180E0,-4.256650203E-1,2.651212069E0,5.395858456E0
8.550134333E0,5.039478943E0,-5.305292782E-1,2.441811290E0,5.624966819E0
8.560214333E0,5.157287475E0,-9.542951229E-1,1.669073090E0,5.504007473E0
8.570294333E0,5.018108540E0,-1.625254348E0,5.692969027E-1,5.305371238E0
8.580374333E0,4.511529749E0,-2.163150241E0,-1.931577989E-1,5.007038004E0
8.590454333E0,3.497380480E0,-2.508901950E0,-6.553895518E-1,4.353825293E0
8.600533542E0,1.953136089E0,-2.549003617E0,-1.118260990E0,3.400392280E0
8.610613542E0,-3.102123320E-2,-1.782143038E0,-2.171555321E0,2.809385811E0
8.620693542E0,-2.066893669E0,-3.589231467E-1,-3.245095637E0,3.864132627E0
8.630772542E0,-3.794390969E0,6.929760388E-1,-3.228802078E0,5.030187021E0
8.640852542E0,-5.025270209E0,1.136824146E0,-1.796818380E0,5.456580074E0
8.650932542E0,-6.007726400E0,2.422191542E0,-1.524932500E0,6.654713179E0
8.661012542E0,-6.959578264E0,4.122539050E0,-4.976747675E0,9.497319372E0
8.671092542E0,-7.386155450E0,4.545277247E0,-9.275859189E0,1.269867715E1
8.681172542E0,-4.902110891E0,1.352769421E0,-8.495343608E0,9.901087784E0
8.691252542E0,-9.655483818E-1,-2.843048105E0,-4.210611566E0,5.171504227E0
8.701331542E0,1.179002159E0,-4.597922360E0,-2.341468391E0,5.292769629E0
8.711411542E0,2.134595071E0,-5.123663646E0,-1.923761432E0,5.874460258E0
8.721491542E0,2.395885504E0,-4.380967563E0,-1.550711997E0,5.228561163E0
8.731571542E0,1.521695774E0,-2.647729175E0,-2.143603876E0,3.731094396E0
8.741651542E0,-8.253379977E-1,-8.860420364E-1,-2.104158267E0,2.427701653E0
8.751731542E0,-3.172223834E0,1.110634759E-1,6.764982927E-1,3.245456685E0
8.761811542E0,-4.425158188E0,2.772250018E0,3.713892936E0,6.407838628E0
8.771891542E0,-4.630696004E0,6.415748616E0,3.064333058E0,8.485005179E0
8.781970542E0,-3.395062392E0,6.198046253E0,2.469583518E0,7.486058292E0
8.792050542E0,-1.158736294E0,3.842273525E0,2.800301450E0,4.893610513E0
8.802130542E0,1.816290777E0,4.991613636E0,-9.798068172E-1,5.401401696E0
8.812210542E0,3.543071208E0,6.038330727E0,-4.703785030E0,8.434475986E0
8.822290542E0,3.463856639E0,4.471871301E0,5.980649114E-2,5.656811166E0
8.832370542E0,2.916070765E0,1.445665890E0,4.159468310E0,5.281533413E0
8.842450542E0,1.739616238E0,-7.803606302E-2,4.869970793E0,5.171940623E0
8.852530542E0,1.425200343E-1,6.379353207E-1,5.423791870E0,5.463038686E0
8.862609542E0,-1.217506658E0,2.881973312E0,6.209303312E0,6.952951910E0
8.872689542E0,-1.850719768E0,4.384698087E0,5.554148526E0,7.314322034E0
8.882769542E0,-1.888337245E0,4.077910761E0,3.386203568E0,5.626859544E0
8.892849542E0,-2.244710421E0,2.689784981E0,2.021409348E0,4.044720494E0
8.902929542E0,-2.889238477E0,7.690778428E-1,1.786367944E0,3.482856606E0
8.913009542E0,-2.700799674E0,-7.197498545E-1,1.818177966E0,3.334385978E0
8.923089542E0,-1.641851962E0,-1.378519974E0,1.506003309E0,2.619931516E0
8.933168542E0,-2.370759434E-1,-1.172943566E0,1.050378909E0,1.592261745E0
8.943248542E0,1.026101562E0,-3.425255075E-1,8.234578255E-1,1.359518639E0
8.953328542E0,1.958147153E0,5.169657844E-1,1.072675512E0,2.291773690E0
8.963408542E0,2.519192757E0,9.939950860E-1,1.578025218E0,3.134409349E0
8.973488542E0,2.816462862E0,1.206551315E0,2.087571763E0,3.707584792E0
8.983568542E0,3.149303334E0,1.231669784E0,2.544749182E0,4.232123621E0
8.993648542E0,3.367171758E0,9.382117715E-1,2.334606391E0,4.203388393E0
9.003728542E0,2.933390218E0,3.322972655E-1,1.532317972E0,3.326138604E0
9.013807542E0,2.209683260E0,1.486391455E-2,9.636245017E-1,2.410703886E0
9.023887542E0,1.564214387E0,5.504890412E-2,7.059774689E-1,1.717032678E0
9.033967542E0,1.195265604E0,1.212961033E-1,6.228641224E-1,1.353267278E0
9.044047542E0,1.049857045E0,5.658058226E-2,5.195743735E-1,1.172756883E0
9.054127542E0,1.058212132E0,-1.395052099E-1,4.143592827E-1,1.144975211E0
9.064207542E0,9.803593791E-1,-5.365752992E-1,8.508736655E-2,1.120828900E0
9.074287542E0,7.262452340E-1,-1.071984664E0,-3.782435167E-1,1.348944557E0
9.084366542E0,3.143235093E-1,-1.325312943E0,-6.224360331E-1,1.497558106E0
9.094446542E0,-1.205754340E-1,-1.520235724E0,-4.509126397E-1,1.590275857E0
9.104526542E0,-4.357070285E-1,-1.721041681E0,-3.060386626E-1,1.801522896E0
9.114606542E0,-5.615437871E-1,-1.862731411E0,-3.396541592E-1,1.974959412E0
9.124686542E0,-4.262532502E-1,-2.187442206E0,-7.148618746E-1,2.340432169E0
9.134766542E0,-1.952970028E-1,-2.639989216E0,-1.476007969E0,3.030888237E0
9.144846542E0,7.098168969E-2,-2.939637968E0,-2.203820257E0,3.674688219E0
9.154926542E0,3.416317606E-1,-2.948374878E0,-2.220966632E0,3.707063455E0
9.165005542E0,3.926779532E-1,-2.535149809E0,-1.316394185E0,2.883413633E0
9.175085542E0,2.099594808E-1,-2.006211850E0,-4.058862287E-1,2.057598746E0
9.185165542E0,-2.460011333E-1,-1.909285480E0,-2.881010860E-1,1.946507086E0
9.195245542E0,-9.314152604E-1,-2.109200613E0,-8.787891501E-1,2.467495083E0
9.205325542E0,-1.548715757E0,-1.873139747E0,-1.460936771E0,2.835755500E0
9.215405542E0,-2.063672438E0,-1.502737346E0,-1.325499469E0,2.876440910E0
9.225485542E0,-2.228894287E0,-1.346033136E0,-1.332920170E0,2.925141215E0
9.235565542E0,-2.167380409E0,-1.694769849E0,-1.761421675E0,3.266862255E0
9.245644542E0,-2.319813813E0,-2.563573124E0,-2.089881413E0,4.039931634E0
9.255724542E0,-2.427918305E0,-3.215132457E0,-1.910968893E0,4.459110463E0
9.265804542E0,-1.919936768E0,-3.378867359E0,-1.868453203E0,4.312078292E0
9.275884542E0,-1.571677188E0,-3.038540697E0,-1.767165980E0,3.850425217E0
9.285964542E0,-1.700688400E0,-2.321476176E0,-1.534844407E0,3.261493527E0
9.296044542E0,-1.974107128E0,-1.641329806E0,-1.292583153E0,2.874340566E0
9.306124542E0,-2.320989103E0,-1.063215594E0,-8.729916358E-1,2.698060825E0
9.316203542E0,-2.982733701E0,-8.465674835E-1,-4.862650152E-1,3.138443962E0
9.326283542E0,-3.537217560E0,-5.761571485E-1,-3.363844693E-1,3.599586037E0
9.336363542E0,-3.463481832E0,5.767430395E-1,-6.637250501E-1,3.573355549E0
9.346443542E0,-3.249705874E0,1.920323853E0,-7.265241462E-1,3.843965310E0
9.356523542E0,-3.095522983E0,1.951143942E0,-3.427386385E-1,3.675145575E0
9.366603542E0,-3.061945932E0,8.278189713E-1,-1.866016267E-1,3.177360116E0
9.376683542E0,-2.935876454E0,-2.903247821E-1,-2.516565603E-1,2.960910343E0
9.386763542E0,-1.954939370E0,-4.001425087E-1,-1.270050140E-1,1.999508000E0
9.396842542E0,-6.808749336E-1,5.891870838E-1,4.661891850E-1,1.013935132E0
9.406922542E0,2.347358876E-1,2.210821128E0,8.313221113E-1,2.373589571E0
9.417002542E0,7.781515521E-1,3.535818906E0,8.199598018E-1,3.712124628E0
9.427082542E0,7.354885125E-1,4.554375222E0,1.267840075E0,4.784422167E0
9.437162542E0,-2.239682400E-1,4.952280586E0,1.472405938E0,5.171385116E0
9.447242542E0,-1.610786875E0,4.433936905E0,8.529158056E-1,4.793943701E0
9.457322542E0,-2.726951346E0,3.807842488E0,1.550775146E-1,4.686147361E0
9.467402542E0,-3.264322743E0,3.253891603E0,-7.283549094E-1,4.666274147E0
9.477481542E0,-3.495549132E0,2.594161371E0,-1.743396463E0,4.689132988E0
9.487561542E0,-3.375126311E0,2.161633181E0,-2.253301443E0,4.597989018E0
9.497641542E0,-2.921496397E0,1.832026219E0,-1.358653182E0,3.706399834E0
9.507721542E0,-2.100998139E0,1.479444963E0,1.076411006E-1,2.571874255E0
9.517801542E0,-1.148404849E0,1.159790839E0,1.035902081E0,1.933142935E0
9.527881542E0,-1.595716846E-1,1.085634696E0,1.148153418E0,1.588182007E0
9.537961542E0,5.792415547E-1,7.379765028E-1,9.899173839E-1,1.363842559E0
9.548040542E0,1.450796530E0,8.183628541E-1,9.109763181E-1,1.898527372E0
9.558120542E0,2.223973855E0,1.011416280E0,8.511101854E-1,2.587162760E0
9.568200542E0,2.798574475E0,9.819910446E-1,6.886990929E-1,3.044771247E0
9.578280542E0,3.038799729E0,5.773239604E-1,7.523966137E-1,3.183348459E0
9.588360542E0,3.082214720E0,2.242921758E-1,1.190529067E0,3.311753919E0
9.598440542E0,3.156420565E0,-8.539566100E-3,1.967841836E0,3.719605516E0
9.608520542E0,3.201677429E0,-3.789524916E-1,2.390560152E0,4.013616971E0
9.618600542E0,3.177559419E0,-9.491574669E-1,2.647020200E0,4.243170948E0
9.628680542E0,3.228262964E0,-1.525160834E0,2.663198569E0,4.454259080E0
9.638759542E0,3.182251809E0,-1.654720514E0,2.651420230E0,4.460364984E0
9.648839542E0,3.204529116E0,-1.468092886E0,2.613979923E0,4.388302020E0
9.658919542E0,3.244064480E0,-1.171584089E0,2.415790011E0,4.211009974E0
9.668999542E0,3.345497299E0,-8.062895232E-1,2.264090725E0,4.119291418E0
9.679079542E0,3.599699737E0,-5.405891204E-1,2.310124100E0,4.311235107E0
9.689159542E0,4.105697899E0,-5.541710329E-1,2.467892210E0,4.822276717E0
9.699239542E0,4.864848340E0,-7.399359047E-1,2.610819796E0,5.570514744E0
9.709319542E0,5.501031834E0,-1.017984458E0,2.656628637E0,6.193167147E0
9.719398542E0,5.733562737E0,-1.512444017E0,2.226589900E0,6.333950674E0
9.729478542E0,5.557483778E0,-2.215196015E0,1.216075845E0,6.105043799E0
9.739558542E0,5.116940517E0,-2.792491032E0,1.355036679E-1,5.830904532E0
9.749638542E0,4.424312096E0,-3.005607424E0,-8.702589396E-1,5.419000289E0
9.759718542E0,3.315304617E0,-3.032489414E0,-1.556795147E0,4.755086527E0
9.769798542E0,1.349690570E0,-2.830809883E0,-2.208554455E0,3.835734872E0
9.779878542E0,-9.918047190E-1,-2.176448564E0,-2.692017448E0,3.601050249E0
9.789957542E0,-3.204712134E0,-1.138508728E0,-2.455161653E0,4.194544162E0
9.800037542E0,-5.057250386E0,-1.176351616E-1,-1.926909280E0,5.413187496E0
9.810117542E0,-6.897520010E0,1.753185579E0,-1.419587893E0,7.257042907E0
9.820197542E0,-8.615924889E0,4.630484920E0,-3.262134131E0,1.031101699E1
9.830277542E0,-9.594317265E0,6.336618832E0,-9.392933895E0,1.484691447E1
9.840357542E0,-8.366261060E0,4.167171724E0,-1.183318924E1,1.507925767E1
9.850437542E0,-3.639868355E0,-1.119950251E0,-6.915423599E0,7.894682626E0
9.860517542E0,2.840974975E-1,-3.755817764E0,-3.071307909E0,4.860021681E0
9.870596542E0,2.616626666E0,-4.744597134E0,-1.039771475E0,5.517160664E0
9.880676542E0,4.357543325E0,-4.759575361E0,3.935181981E-1,6.465028849E0
9.890756542E0,4.685670941E0,-3.300526364E0,2.413976204E-1,5.736484922E0
9.900836542E0,2.129039047E0,-5.784741077E-1,4.695492509E-1,2.255640941E0
9.910916542E0,-1.052466073E0,2.287314111E0,2.168720883E0,3.323077030E0
9.920996542E0,-2.962759613E0,5.943177817E0,2.832637430E0,7.219635856E0
9.931076542E0,-3.921724030E0,8.241082113E0,2.106925170E0,9.366668961E0
9.941156542E0,-3.703231122E0,6.515327868E0,2.092860277E0,7.780969227E0
9.951235542E0,-1.863364372E0,4.724255840E0,-7.720312715E-2,5.079043251E0
9.961315542E0,4.153476083E-1,4.545973942E0,-2.395292596E0,5.155174036E0
9.971395542E0,1.278929320E0,3.713645891E0,-1.274868429E-1,3.929768301E0
9.981475542E0,1.352180899E0,1.994956837E0,2.036911486E0,3.155511744E0
9.991555542E0,9.567220098E-1,7.047245568E-1,3.903555561E0,4.080404358E0
1.000163554E1,5.045924914E-1,4.345007479E-1,4.750178593E0,4.796623933E0
1.001171554E1,6.526954472E-2,1.514117490E0,4.799237317E0,5.032841217E0
1.002179554E1,-4.452654719E-1,3.117267024E0,4.737647718E0,5.688666007E0
1.003187454E1,-8.102106661E-1,3.504267038E0,3.951037584E0,5.342941773E0
1.004195454E1,-1.430763969E0,2.833295242E0,3.129904903E0,4.457684619E0
1.005203454E1,-2.548974380E0,1.597223089E0,2.472120917E0,3.893555421E0
1.006211454E1,-3.065078870E0,-7.792759717E-2,1.930445091E0,3.623175326E0
1.007219454E1,-2.455985525E0,-1.062930250E0,1.402623366E0,3.021429782E0
1.008227454E1,-1.092268655E0,-9.107102698E-1,7.747095886E-1,1.619450202E0
1.009235454E1,3.401600164E-1,-6.762714207E-2,6.090614775E-1,7.008838352E-1
1.010243454E1,1.534122861E0,8.261943224E-1,9.705267012E-1,1.994505475E0
1.011251454E1,2.604000773E0,1.318887438E0,1.369243659E0,3.224145204E0
1.012259354E1,3.537354970E0,1.479640552E0,1.585778626E0,4.149326475E0
1.013267354E1,4.146475797E0,1.269742759E0,1.550325788E0,4.605324989E0
1.014275354E1,3.847675475E0,7.411918867E-1,1.588676798E0,4.228222552E0
1.015283354E1,2.997833551E0,-1.089084846E-1,1.478412491E0,3.344334097E0
1.016291354E1,2.273320262E0,-2.693207064E-1,1.332172165E0,2.648622536E0
1.017299354E1,1.616530010E0,-2.081714022E-1,1.124440620E0,1.980119015E0
1.018307354E1,1.258900852E0,-1.222266877E-1,9.361216843E-1,1.573561097E0
1.019315254E1,1.234832543E0,2.017786413E-2,9.005565798E-1,1.528470055E0
1.020323254E1,1.149925125E0,-1.151439553E-1,6.293535816E-1,1.315930034E0
1.021331254E1,9.939980096E-1,-4.878071818E-1,4.177471595E-1,1.183427471E0
1.022339254E1,8.665275389E-1,-7.464748460E-1,2.226092009E-1,1.165182186E0
1.023347254E1,6.173689091E-1,-9.116826618E-1,5.249557123E-3,1.101061853E0
1.024355254E1,3.333591199E-1,-1.299262135E0,-8.711876236E-2,1.344172637E0
1.025363254E1,6.530989051E-2,-1.647924296E0,-1.030582722E-1,1.652434832E0
1.026371254E1,-4.928676546E-2,-1.828445969E0,-2.639538030E-1,1.848057212E0
1.027379254E1,-2.274976194E-2,-2.142170139E0,-5.862734163E-1,2.221064379E0
1.028387154E1,6.884043932E-2,-2.589446468E0,-1.024418149E0,2.785570779E0
1.029395154E1,1.982796675E-1,-2.676219733E0,-1.301903615E0,2.982686693E0
1.030403154E1,2.374121583E-1,-2.324647121E0,-1.380122988E0,2.713869605E0
1.031411154E1,9.279121935E-2,-1.732617121E0,-1.090822638E0,2.049503922E0
1.032419154E1,-3.197941643E-1,-1.352601898E0,-6.071701956E-1,1.516725370E0
1.033427154E1,-7.715260720E-1,-1.514667420E0,-5.870926112E-1,1.798373601E0
1.034435154E1,-1.094698173E0,-1.905694705E0,-1.091461739E0,2.453838855E0
1.035443154E1,-1.675331365E0,-2.328239066E0,-1.568161258E0,3.269030752E0
1.036451054E1,-2.421388720E0,-2.562783165E0,-1.536849418E0,3.846152235E0
1.037459054E1,-2.616636606E0,-2.504432631E0,-1.506077861E0,3.922657320E0
1.038467054E1,-2.463068258E0,-2.489656717E0,-1.949223717E0,4.008062987E0
1.039475054E1,-2.420373058E0,-3.166657870E0,-2.109932100E0,4.509738493E0
1.040483054E1,-2.577126970E0,-3.942803827E0,-1.943966485E0,5.095713015E0
1.041491054E1,-2.409921745E0,-4.030012125E0,-1.553859553E0,4.946028715E0
1.042499054E1,-2.224577873E0,-3.565853714E0,-1.136899867E0,4.353917860E0
1.043507054E1,-2.331598876E0,-2.711812904E0,-1.384590261E0,3.835019262E0
1.044514954E1,-2.614640951E0,-1.744120349E0,-1.475648950E0,3.472152491E0
1.045522954E1,-3.184003050E0,-9.495656025E-1,-7.575488877E-1,3.407848379E0
1.046530954E1,-3.737210462E0,-2.907639080E-1,9.860163409E-2,3.749801057E0
1.047538954E1,-3.782137544E0,8.957770658E-1,1.912922448E-1,3.891474486E0
1.048546954E1,-3.468747835E0,1.991482714E0,-7.661559892E-1,4.072494314E0
1.049554954E1,-3.501450142E0,1.555692655E0,-1.475897457E0,4.105923287E0
1.050562954E1,-3.255563614E0,2.049776530E-1,-1.126325762E0,3.450988265E0
1.051570954E1,-2.253004696E0,-6.120748401E-1,-2.094238758E-2,2.334760021E0
1.052578954E1,-1.058906196E0,-1.777711433E-1,9.203610992E-1,1.414195695E0
1.053586854E1,-3.724793315E-2,1.038904041E0,9.076703755E-1,1.380063232E0
1.054594854E1,7.089994562E-1,2.106559426E0,4.254177562E-1,2.263018584E0
1.055602854E1,3.798988634E-1,2.705042413E0,4.192547178E-1,2.763575967E0
1.056610854E1,-1.245152294E0,2.986930248E0,7.151403482E-1,3.314148799E0
1.057618854E1,-2.931057764E0,2.695449471E0,3.037793715E-1,3.993598549E0
1.058626854E1,-3.667194732E0,2.520950722E0,-2.070475674E-1,4.454927434E0
1.059634879E1,-4.297286598E0,2.754116048E0,-1.692707974E0,5.377461074E0
1.060642879E1,-4.851314959E0,2.742168432E0,-2.613602486E0,6.155133020E0
1.061650779E1,-4.402663949E0,2.367058438E0,-1.730097556E0,5.289579667E0
1.062658779E1,-3.570991078E0,2.125240403E0,-2.030249754E-1,4.160509968E0
1.063666779E1,-2.630811426E0,2.052605413E0,8.423016474E-1,3.441486569E0
1.064674779E1,-1.534328098E0,1.840681560E0,1.364876081E0,2.757745100E0
1.065682779E1,-2.982460052E-1,1.561938943E0,1.622402369E0,2.271737966E0
1.066690779E1,8.512101728E-1,1.236686988E0,1.557381623E0,2.163190002E0
1.067698779E1,1.908310164E0,6.523337969E-1,1.361376230E0,2.433214398E0
1.068706779E1,3.023462482E0,2.599119517E-1,1.258512889E0,3.285229717E0
1.069714679E1,3.591100237E0,-1.275482386E-2,9.961307815E-1,3.726719755E0
1.070722679E1,3.434942742E0,-2.233914122E-1,6.657937950E-1,3.505997253E0
1.071730679E1,3.109853924E0,1.801614851E-2,9.906001925E-1,3.263863470E0
1.072738679E1,3.038098063E0,9.664453447E-2,1.514840790E0,3.396192372E0
1.073746679E1,3.176947800E0,-3.109543437E-1,1.599320193E0,3.570366229E0
1.074754679E1,3.214328465E0,-1.040621368E0,1.791487181E0,3.824163520E0
1.075762679E1,2.995632659E0,-1.554615305E0,2.122013910E0,3.986676161E0
1.076770679E1,2.875937816E0,-1.695485840E0,2.332501101E0,4.072622244E0
1.077778679E1,2.868770299E0,-1.621282919E0,2.429125463E0,4.093782096E0
1.078786579E1,2.831094934E0,-1.463956273E0,2.478894624E0,4.037720279E0
1.079794579E1,2.905026544E0,-1.192967064E0,2.488146088E0,4.006647052E0
1.080802579E1,3.242496842E0,-9.326560396E-1,2.636276819E0,4.281773992E0
1.081810579E1,3.875092485E0,-8.651557821E-1,2.859908259E0,4.893251633E0
1.082818579E1,4.750482064E0,-9.514232630E-1,2.984060435E0,5.690070539E0
1.083826579E1,5.465460298E0,-9.977718025E-1,2.923106720E0,6.277846584E0
1.084834579E1,5.879599287E0,-1.158672559E0,2.378311113E0,6.447369512E0
1.085842579E1,5.776202388E0,-1.368754539E0,1.453466076E0,6.111510995E0
1.086850579E1,5.217471111E0,-1.660589657E0,6.411928046E-1,5.512775256E0
1.087858479E1,4.312807447E0,-2.173458882E0,2.339734107E-2,4.829573379E0
1.088866479E1,2.968898020E0,-2.424895295E0,-5.653766370E-1,3.874806238E0
1.089874479E1,1.023869680E0,-2.190354120E0,-1.657975659E0,2.931696365E0
1.090882479E1,-1.052125765E0,-1.486289129E0,-2.795496501E0,3.336289059E0
1.091890479E1,-2.863063416E0,-6.145090359E-1,-3.284247423E0,4.400117569E0
1.092898479E1,-4.675339496E0,-2.299362007E-1,-2.981069584E0,5.549634755E0
1.093906479E1,-6.476830385E0,4.603205904E-1,-2.592214248E0,6.991480644E0
1.094914479E1,-8.201090666E0,2.240095214E0,-4.571652282E0,9.652767441E0
1.095922379E1,-9.075942301E0,3.678552656E0,-7.339367784E0,1.223808799E1
1.096930379E1,-7.462960966E0,2.542084022E0,-7.335588729E0,1.076888293E1
1.097938379E1,-3.082072633E0,-9.049308819E-1,-4.837019978E0,5.806447613E0
1.098946379E1,-3.787691814E-1,-2.909428036E0,-3.390858244E0,4.483988985E0
1.099954379E1,5.230141443E-1,-3.388341018E0,-2.689683532E0,4.357613585E0
1.100962379E1,9.267445046E-1,-2.972483240E0,-1.126533923E0,3.311131328E0
1.101970379E1,7.890998787E-1,-1.270416651E0,-4.046837488E-1,1.549324376E0
1.102978379E1,-8.155836725E-1,5.081546152E-1,1.217320132E-1,9.686157767E-1
1.103986379E1,-3.216151627E0,2.051107064E0,2.333687502E0,4.471774685E0
1.104994279E1,-4.572224432E0,5.156810342E0,3.511452389E0,7.734870849E0
1.106002279E1,-4.373024998E0,7.222699460E0,2.691783267E0,8.862078327E0
1.107010279E1,-1.874972264E0,4.501344484E0,2.984222987E0,5.716923123E0
1.108018279E1,1.709923493E0,3.811800176E0,2.304295303E0,4.771104251E0
1.109026279E1,4.479134420E0,5.748284272E0,-2.353333561E0,7.657910686E0
1.110034279E1,5.186520630E0,5.394137131E0,-2.526264380E0,7.898020217E0
1.111042279E1,4.470358334E0,2.841914915E0,3.439740382E0,6.316042900E0
1.112050279E1,2.785461509E0,1.701250318E-1,5.798080330E0,6.434708529E0
1.113058279E1,5.043574333E-1,7.258031845E-2,6.347889925E0,6.368308317E0
1.114066179E1,-1.316462013E0,2.295392624E0,6.727812177E0,7.229478281E0
1.115074179E1,-2.365600435E0,4.640884777E0,6.009963545E0,7.953209336E0
1.116082179E1,-2.633053249E0,5.273360553E0,3.668781667E0,6.942712715E0
1.117090179E1,-2.446065139E0,4.486086175E0,2.031831425E0,5.498776480E0
1.118098179E1,-2.575416659E0,2.823119332E0,1.674527957E0,4.172147842E0
1.119106179E1,-2.848597990E0,8.822141567E-1,1.686415055E0,3.425902518E0
1.120114179E1,-2.438244488E0,-3.220897812E-1,1.711573869E0,2.996374997E0
1.121122179E1,-1.270722753E0,-6.554518247E-1,1.416504072E0,2.012669172E0
1.122130179E1,1.797252828E-1,-3.088645488E-2,9.426196951E-1,9.600974117E-1
1.123138079E1,1.291387982E0,1.091007995E0,8.047011271E-1,1.872304802E0
1.124146079E1,1.980000536E0,1.742423487E0,9.337316349E-1,2.797909308E0
1.125154079E1,2.411594633E0,1.798545063E0,1.372408318E0,3.306668657E0
1.126162079E1,2.676784574E0,1.704810103E0,2.016877756E0,3.760232576E0
1.127170079E1,3.201224270E0,1.442555172E0,2.435888207E0,4.273447508E0
1.128178079E1,3.485801824E0,7.266443065E-1,2.169600305E0,4.169651279E0
1.129186079E1,3.121437258E0,-2.348493236E-1,1.259622545E0,3.374192306E0
1.130194079E1,2.423279124E0,-8.389853990E-1,5.803232896E-1,2.629249576E0
1.131202079E1,1.696510565E0,-1.068435111E0,3.755713391E-1,2.039793008E0
1.132209979E1,1.285753605E0,-1.048023943E0,5.956408019E-1,1.762471130E0
1.133217979E1,1.135506476E0,-9.496869323E-1,7.184427094E-1,1.645430081E0
1.134225979E1,1.154269606E0,-9.300297627E-1,4.552162635E-1,1.550650034E0
1.135233979E1,9.886144781E-1,-9.438052180E-1,-1.443232425E-1,1.374392984E0
1.136241979E1,1.046491973E0,-9.387596557E-1,-4.763364796E-1,1.484355612E0
1.137249979E1,1.021462966E0,-1.149336895E0,-4.845681167E-1,1.612193583E0
1.138257979E1,6.298404354E-1,-1.570483187E0,-2.788186312E-1,1.714892487E0
1.139265979E1,1.017859912E-1,-1.786937755E0,-1.388796309E-1,1.795214327E0
1.140273979E1,-3.150017864E-1,-2.013093731E0,-3.733506032E-1,2.071512290E0
1.141281879E1,-5.463094515E-1,-2.309436175E0,-9.245336723E-1,2.546902427E0
1.142289879E1,-5.445699048E-1,-2.602335486E0,-1.613304101E0,3.109896539E0
1.143297879E1,-2.127965498E-1,-2.616213267E0,-2.010182694E0,3.306159206E0
1.144305879E1,1.770975441E-1,-2.331441001E0,-1.758277627E0,2.925494983E0
1.145313879E1,4.090302765E-1,-1.834056957E0,-1.084076121E0,2.169398932E0
1.146321879E1,4.016855890E-1,-1.975420412E0,-3.045393634E-1,2.038720516E0
1.147329879E1,-2.410573125E-2,-2.820796818E0,-3.904577655E-1,2.847794417E0
1.148337879E1,-1.005862010E0,-3.288998578E0,-1.318654718E0,3.683492948E0
1.149345879E1,-1.985791034E0,-3.187242408E0,-1.580792997E0,4.074406300E0
1.150353779E1,-2.505008581E0,-2.721385381E0,-1.561690144E0,4.014957346E0
1.151361779E1,-2.566164025E0,-2.142049102E0,-1.764616009E0,3.779873254E0
1.152369779E1,-2.452425156E0,-2.163820040E0,-2.129843039E0,3.902913998E0
1.153377779E1,-2.505693290E0,-2.659398463E0,-2.137207022E0,4.233031173E0
1.154385779E1,-2.147544900E0,-2.857854717E0,-1.630202554E0,3.928974809E0
1.155393779E1,-1.480806195E0,-2.578290566E0,-1.120807160E0,3.177511277E0
1.156401779E1,-1.236163954E0,-2.048574927E0,-1.094884187E0,2.631260523E0
1.157409779E1,-1.502298805E0,-1.436289588E0,-1.100681044E0,2.351877599E0
1.158417779E1,-2.104405312E0,-7.586124963E-1,-8.870074117E-1,2.406407444E0
1.159425679E1,-2.849742875E0,-4.908269763E-2,-5.669823189E-1,2.906013164E0
1.160433704E1,-3.371396956E0,5.615800399E-1,-4.899118870E-1,3.452781956E0
1.161441704E1,-3.412119305E0,1.137436057E0,-3.253273479E-1,3.611392643E0
1.162449704E1,-3.218888708E0,1.573674012E0,-3.186814392E-1,3.597117217E0
1.163457704E1,-3.291052705E0,9.140455216E-1,-7.188666326E-1,3.490455036E0
1.164465704E1,-3.422958289E0,-3.361798167E-2,-9.946371102E-1,3.564698668E0
1.165473704E1,-2.765270489E0,-3.294058174E-1,-4.875770938E-1,2.827182430E0
1.166481704E1,-1.641493528E0,3.631799197E-1,6.352438474E-1,1.797202104E0
1.167489704E1,-8.060854554E-1,2.002616982E0,1.242247982E0,2.490668301E0
1.168497604E1,1.340491730E-1,3.832111649E0,1.305367506E0,4.050559615E0
1.169505604E1,5.984151596E-1,5.048771338E0,8.990796462E-1,5.162996895E0
1.170513604E1,-4.758341306E-1,5.697456765E0,9.742294505E-2,5.718122327E0
1.171521604E1,-2.175808001E0,5.127091869E0,1.453828311E-1,5.571565997E0
1.172529604E1,-3.195200468E0,3.875565525E0,4.329687774E-1,5.041505344E0
1.173537604E1,-3.640770580E0,2.551384603E0,-2.000765169E-1,4.450258916E0
1.174545604E1,-3.844289938E0,1.496702143E0,-1.627972573E0,4.434972055E0
1.175553604E1,-3.911770899E0,7.419309747E-1,-2.192851027E0,4.545438237E0
1.176561604E1,-3.701891525E0,4.293163142E-1,-1.624830133E0,4.065511816E0
1.177569504E1,-3.100394883E0,5.361946455E-1,-6.738228992E-1,3.217761711E0
1.178577504E1,-2.121491461E0,4.652100322E-1,-1.250485539E-1,2.175496158E0
1.179585504E1,-9.888471973E-1,-1.132105735E-1,-7.400206894E-2,9.980539664E-1
1.180593504E1,2.276812220E-1,-4.624709040E-1,-1.119601464E-1,5.274970619E-1
1.181601504E1,1.372384783E0,-2.212826139E-1,1.353153875E-1,1.396680437E0
1.182609504E1,2.253232153E0,1.438353655E-1,4.370065722E-1,2.299721394E0
1.183617504E1,2.818130488E0,1.249918360E-1,8.890048206E-1,2.957670025E0
1.184625504E1,3.157022828E0,-7.011016220E-2,1.400250566E0,3.454332094E0
1.185633504E1,3.353429632E0,-3.021706563E-1,2.075369793E0,3.955244263E0
1.186641504E1,3.527581349E0,-3.823117170E-1,2.566528599E0,4.379162188E0
1.187649404E1,3.560596483E0,-5.261076137E-1,2.650968825E0,4.470153492E0
1.188657404E1,3.507597905E0,-8.281993327E-1,2.876175505E0,4.611024044E0
1.189665404E1,3.529854746E0,-1.104804793E0,3.058415675E0,4.799413986E0
1.190673404E1,3.615802969E0,-1.194265146E0,2.992681277E0,4.843185065E0
1.191681404E1,3.805459748E0,-1.049720805E0,2.921283266E0,4.910940193E0
1.192689404E1,3.865350439E0,-8.095452529E-1,2.850778416E0,4.870650379E0
1.193697404E1,3.902867344E0,-4.439621276E-1,2.742713685E0,4.790819787E0
1.194705404E1,4.110006713E0,-1.304522583E-1,2.612560219E0,4.871821412E0
1.195713404E1,4.485828313E0,8.328043073E-2,2.585609818E0,5.178317237E0
1.196721404E1,5.015757959E0,8.873968363E-2,2.520261336E0,5.614037748E0
1.197729304E1,5.415620971E0,-1.628607434E-1,2.231269719E0,5.859525465E0
1.198737304E1,5.425774661E0,-7.219460687E-1,1.482235254E0,5.670737002E0
1.199745304E1,5.237998931E0,-1.439340957E0,5.289604703E-1,5.457850710E0
1.200753304E1,4.778459821E0,-1.893212653E0,-3.972762036E-1,5.155168358E0
1.201761304E1,3.889478390E0,-2.188599662E0,-1.127376799E0,4.603149908E0
1.202769304E1,2.282042554E0,-2.367886404E0,-1.577934586E0,3.647530918E0
1.203777304E1,-5.216710389E-2,-2.292509070E0,-1.918018881E0,2.989500907E0
1.204785304E1,-2.683571438E0,-1.677558277E0,-2.134563788E0,3.817344627E0
1.205793304E1,-5.009610196E0,-6.446283361E-1,-2.341913949E0,5.567432169E0
1.206801204E1,-6.747493320E0,6.247168127E-1,-2.971828060E0,7.399371542E0
1.207809204E1,-7.693054165E0,2.024888442E0,-3.763473816E0,8.800397192E0
1.208817204E1,-8.176492015E0,3.787290695E0,-6.690726796E0,1.122338708E1
1.209825204E1,-8.487315381E0,5.034464371E0,-9.283059450E0,1.354826729E1
1.210833204E1,-6.394750096E0,3.459768850E0,-7.200723284E0,1.023294899E1
1.211841204E1,-1.582850633E0,-2.441364563E-1,-3.568484377E0,3.911406330E0
1.212849204E1,1.603227594E0,-1.921668421E0,-1.799084176E0,3.082183011E0
1.213857204E1,2.278531301E0,-1.573569932E0,-2.295792282E-2,2.769179353E0
1.214865204E1,-3.872727871E-2,6.517710024E-1,1.736671581E0,1.855352641E0
1.215873204E1,-3.150061133E0,3.241911828E0,3.446082857E0,5.684044730E0
1.216881104E1,-3.514024580E0,5.015755620E0,4.104741003E0,7.372589225E0
1.217889104E1,-1.202945922E0,5.725234548E0,1.108764820E0,5.954389049E0
1.218897104E1,1.325920469E0,3.056294598E0,4.793570781E-1,3.365826045E0
1.219905104E1,2.772642074E0,1.397329882E0,2.010898686E0,3.699160498E0
1.220913104E1,4.044167649E0,1.933846709E0,-2.028989679E-1,4.487340310E0
1.221921104E1,4.080194684E0,1.749789224E0,-6.996895194E-2,4.440117863E0
1.222929104E1,2.982565302E0,6.783626774E-1,2.525682582E0,3.966729661E0
1.223937104E1,1.265676606E0,-2.629621518E-1,4.718232915E0,4.892116945E0
1.224945104E1,-6.212491214E-1,3.554113090E-1,5.816791420E0,5.860659527E0
1.225953104E1,-2.108470881E0,2.170175671E0,5.601675864E0,6.366638390E0
1.226961004E1,-2.767471966E0,3.506812916E0,3.884471419E0,5.919945617E0
1.227969004E1,-2.830999040E0,3.589403668E0,1.969502153E0,4.977681487E0
1.228977004E1,-2.780451030E0,2.735365781E0,1.428983199E0,4.153929089E0
1.229985004E1,-2.549101850E0,1.338304287E0,1.478342178E0,3.236429236E0
1.230993004E1,-1.997938040E0,9.996546060E-2,1.332170265E0,2.403419880E0
1.232001004E1,-9.054594702E-1,-6.524337843E-1,9.530718854E-1,1.467607820E0
1.233009004E1,3.949349785E-1,-5.995644298E-1,6.822124842E-1,9.903862965E-1
1.234017004E1,1.571053875E0,2.529552269E-1,9.197430485E-1,1.837967328E0
1.235025004E1,2.310942417E0,1.204181439E0,1.530589681E0,3.022120541E0
1.236032904E1,2.770785583E0,1.501186372E0,2.024425488E0,3.745545598E0
1.237040904E1,3.020916604E0,1.345257211E0,2.030339216E0,3.880455054E0
1.238048904E1,3.052841232E0,1.084406489E0,1.917789378E0,3.764796558E0
1.239056904E1,2.814270156E0,7.818920159E-1,1.832241397E0,3.447982043E0
1.240064904E1,1.948872884E0,1.312001172E-1,1.192304720E0,2.288429491E0
1.241072904E1,1.232662057E0,-2.875379992E-1,7.879989941E-1,1.490998411E0
1.242080904E1,9.522939134E-1,-4.168599907E-1,6.046839595E-1,1.202613255E0
1.243088904E1,9.272918040E-1,-4.043545505E-1,4.860943861E-1,1.122345956E0
1.244096904E1,8.246860331E-1,-5.294259086E-1,3.104976761E-1,1.028011504E0
1.245104904E1,7.398628145E-1,-7.136751822E-1,4.537212767E-2,1.028974188E0
1.246112804E1,4.353526872E-1,-1.049744487E0,-1.927639890E-1,1.152672289E0
1.247120804E1,4.373699766E-1,-1.151511767E0,-3.786808884E-1,1.288670268E0
1.248128804E1,4.555577409E-1,-1.287837553E0,-6.823186111E-1,1.526963361E0
1.249136804E1,3.922323954E-1,-1.359622065E0,-6.063165021E-1,1.539492810E0
1.250144804E1,4.791454089E-1,-1.312350250E0,-3.028249598E-1,1.429526656E0
1.251152804E1,4.398398405E-1,-1.389606880E0,-3.566473738E-1,1.500554469E0
1.252160804E1,3.747340178E-1,-1.600519457E0,-7.468905830E-1,1.805528637E0
1.253168804E1,2.864030546E-1,-1.949371651E0,-1.194927635E0,2.304328231E0
1.254176804E1,1.222050530E-1,-2.021183646E0,-1.790460702E0,2.702936723E0
1.255184804E1,2.344218922E-1,-1.783099642E0,-1.877421663E0,2.599828852E0
1.256192704E1,5.792462325E-1,-1.355365877E0,-1.397679253E0,2.031268115E0
1.257200704E1,7.127703255E-1,-7.834105378E-1,-1.046299599E0,1.488796984E0
1.258208704E1,4.658289599E-1,-5.055549431E-1,-8.030080658E-1,1.057073495E0
1.259216704E1,-6.515552402E-3,-7.408913398E-1,-6.817835909E-1,1.006872035E0
1.260224617E1,-6.558073354E-1,-1.431424704E0,-8.438514519E-1,1.786377681E0
1.261232617E1,-1.615627785E0,-2.004030254E0,-9.570804441E-1,2.746341817E0
1.262240617E1,-2.131762095E0,-1.935105030E0,-1.003438339E0,3.048922696E0
1.263248617E1,-1.916216184E0,-1.477183844E0,-1.513835946E0,2.854059538E0
1.264256617E1,-1.627568969E0,-1.546119593E0,-1.905178396E0,2.944345643E0
1.265264617E1,-1.687873058E0,-2.081449728E0,-1.894351106E0,3.281754796E0
1.266272517E1,-1.627545580E0,-2.458431416E0,-1.732007841E0,3.419450365E0
1.267280517E1,-1.375128297E0,-2.472948883E0,-1.689876314E0,3.295775472E0
1.268288517E1,-1.354536157E0,-2.115058939E0,-1.897067723E0,3.147555950E0
1.269296517E1,-1.684502723E0,-1.782841195E0,-2.008974075E0,3.170496646E0
1.270304517E1,-2.368114738E0,-1.571570184E0,-1.638258263E0,3.280501546E0
1.271312517E1,-3.030668591E0,-1.291638828E0,-9.061044180E-1,3.416768676E0
1.272320517E1,-3.506136686E0,-8.890475053E-1,-3.766513930E-1,3.636655908E0
1.273328517E1,-3.073045701E0,1.402975076E-1,-2.648555167E-1,3.087627199E0
1.274336517E1,-2.383268382E0,9.570512080E-1,-4.299141920E-1,2.603985677E0
1.275344517E1,-2.105843142E0,5.915937978E-1,-4.027573836E-1,2.224134005E0
1.276352417E1,-2.042794955E0,8.217150629E-2,1.541828907E-1,2.050252606E0
1.277360417E1,-1.866625949E0,1.881400108E-2,9.024534166E-1,2.073419535E0
1.278368417E1,-1.207938275E0,3.710397470E-1,1.251883024E0,1.778762625E0
1.279376417E1,-5.642311674E-1,8.807842201E-1,1.367942069E0,1.722034598E0
1.280384417E1,-5.116676223E-1,1.738782718E0,1.950790186E0,2.662846493E0
1.281392417E1,-1.706445569E0,2.894073248E0,1.965101831E0,3.892202673E0
1.282400417E1,-3.069856630E0,3.716446122E0,1.332386173E0,5.001124316E0
1.283408417E1,-3.969485257E0,4.276058282E0,8.137438461E-2,5.835075785E0
1.284416417E1,-4.236492512E0,4.282595176E0,-5.379613817E-1,6.047965997E0
1.285424417E1,-4.329933357E0,3.626254867E0,-7.696666574E-1,5.700038070E0
1.286432417E1,-4.450569602E0,2.369463398E0,-1.206040999E0,5.184251293E0
1.287440317E1,-4.171522930E0,1.366003424E0,-1.574354628E0,4.663277968E0
1.288448317E1,-3.331923573E0,6.832705379E-1,-1.419451799E0,3.685568713E0
1.289456317E1,-2.084100856E0,1.548927426E-2,-1.171335289E0,2.390761940E0
1.290464317E1,-7.598597074E-1,-4.403517643E-1,-7.990207033E-1,1.187320738E0
1.291472317E1,3.713046259E-1,-4.438288110E-1,-3.131417871E-2,5.795098934E-1
1.292480317E1,1.411422549E0,-9.800985932E-2,7.562825270E-1,1.604270178E0
1.293488317E1,2.205547525E0,2.649238926E-1,6.957484961E-1,2.327808094E0
1.294496317E1,2.559775942E0,6.563058105E-1,1.181236087E0,2.894565405E0
1.295504317E1,2.733602554E0,8.992783785E-1,2.011968726E0,3.511310678E0
1.296512317E1,2.992236596E0,1.341479617E0,2.409311003E0,4.069130979E0
1.297520217E1,3.030511885E0,1.827821194E0,3.016929388E0,4.650461863E0
1.298528217E1,2.873895968E0,7.456740698E-1,2.801190812E0,4.081908600E0
1.299536217E1,3.157220464E0,-2.357012630E-2,1.968184775E0,3.720530596E0
1.300544217E1,3.232512136E0,-1.704036516E-1,2.253842310E0,3.944360185E0
1.301552217E1,3.239928160E0,-6.353017348E-1,2.721069047E0,4.278429564E0
1.302560217E1,3.341877873E0,-9.556879297E-1,2.907238254E0,4.531392876E0
1.303568217E1,3.398256142E0,-1.032379718E0,2.835243826E0,4.544508801E0
1.304576217E1,3.425914056E0,-8.058629689E-1,2.671049333E0,4.418235709E0
1.305584217E1,3.631448949E0,-4.605480471E-1,2.740078345E0,4.572478027E0
1.306592217E1,4.135453795E0,-2.492843449E-1,2.946843492E0,5.084093561E0
1.307600217E1,4.785658913E0,-2.335448098E-1,3.147683070E0,5.732798891E0
1.308608117E1,5.420234424E0,-3.731266183E-1,2.969202075E0,6.191472010E0
1.309616117E1,5.951113658E0,-6.034937587E-1,2.169870738E0,6.363041530E0
1.310624117E1,5.974661565E0,-1.011715073E0,1.034837887E0,6.147441554E0
1.311632117E1,5.617945157E0,-1.706773598E0,-5.289040446E-2,5.871727284E0
1.312640117E1,4.986292085E0,-2.375987429E0,-9.698507631E-1,5.607943966E0
1.313648117E1,3.739989059E0,-2.737941772E0,-1.069171276E0,4.756781530E0
1.314656117E1,1.723148140E0,-2.816486835E0,-1.003438047E0,3.450902132E0
1.315664117E1,-8.133172917E-1,-1.945523891E0,-1.785424495E0,2.763021689E0
1.316672117E1,-3.436002842E0,-2.156511605E-1,-3.432186072E0,4.861329261E0
1.317680117E1,-5.746755810E0,1.323428385E0,-3.745970761E0,6.986341100E0
1.318688017E1,-7.126920898E0,2.177659814E0,-2.788599125E0,7.956851691E0
1.319696017E1,-7.938339599E0,3.455246029E0,-4.343046031E0,9.685969726E0
1.320704017E1,-8.430695622E0,4.847625951E0,-8.238719838E0,1.274568988E1
1.321712017E1,-7.385157915E0,3.569970447E0,-8.567570754E0,1.186121895E1
1.322720017E1,-2.958015182E0,-9.254364824E-1,-4.678444659E0,5.611963198E0
1.323728017E1,9.303019506E-1,-4.152290560E0,-1.669803992E0,4.571129400E0
1.324736017E1,3.037488783E0,-5.395149869E0,-7.412933359E-1,6.235663238E0
1.325744017E1,3.851220058E0,-5.067870684E0,-5.241789097E-1,6.386702806E0
1.326752017E1,2.916337398E0,-3.235944744E0,-7.205751890E-1,4.415381163E0
1.327760017E1,2.284647489E-1,-5.158285010E-1,4.892853579E-1,7.467766369E-1
1.328768017E1,-1.889122526E0,2.420274825E0,1.951411160E0,3.637927935E0
1.329775917E1,-2.810536124E0,6.059635642E0,2.229466730E0,7.041932924E0
1.330783917E1,-3.247230163E0,8.284503536E0,2.144092411E0,9.152848455E0
1.331791917E1,-3.439190159E0,7.368457097E0,1.953617022E0,8.362942569E0
1.332799917E1,-2.354943885E0,5.786747257E0,-2.805985236E-1,6.253874003E0
1.333807917E1,6.801656663E-2,4.145982292E0,-2.576335841E-1,4.154536133E0
1.334815917E1,1.815313123E0,2.688676349E0,1.894645806E0,3.756863715E0
1.335823917E1,2.451024747E0,1.371641310E0,2.371837660E0,3.676212192E0
1.336831917E1,2.045531452E0,4.588997170E-1,3.658659259E0,4.216701963E0
1.337839917E1,1.419298164E0,1.720151442E-1,5.016048566E0,5.215816302E0
1.338847917E1,7.055127615E-1,1.149350343E0,5.150043944E0,5.323692994E0
1.339855917E1,-1.443636614E-1,2.790110923E0,4.511962735E0,5.306916954E0
1.340863817E1,-8.550781059E-1,3.468982016E0,3.418892720E0,4.945080608E0
1.341871817E1,-1.482328809E0,2.953984696E0,2.775570944E0,4.315914544E0
1.342879817E1,-2.462584693E0,1.687735941E0,2.570676029E0,3.939689229E0
1.343887817E1,-3.217909300E0,3.368174556E-1,2.402929645E0,4.030193188E0
1.344895817E1,-3.156635157E0,-5.241987902E-1,1.887630024E0,3.715141585E0
1.345903817E1,-1.448062372E0,-6.710720766E-1,1.367105040E0,2.101475328E0
1.346911817E1,6.576743513E-1,2.155207676E-1,1.138063755E0,1.331981180E0
1.347919817E1,1.931645232E0,1.246252740E0,1.385805459E0,2.684186276E0
1.348927817E1,2.656928599E0,1.781161290E0,1.613503199E0,3.582624415E0
1.349935817E1,3.166074902E0,1.831277483E0,1.609045136E0,3.995827043E0
1.350943817E1,3.594362984E0,1.598096078E0,1.711553404E0,4.289845147E0
1.351951717E1,3.194587680E0,9.302443555E-1,1.617795640E0,3.699730766E0
1.352959717E1,2.301212651E0,8.936299682E-2,1.764377443E0,2.901136530E0
1.353967717E1,1.675476961E0,-3.882799700E-1,1.611495119E0,2.356883726E0
1.354975717E1,1.213715324E0,-6.326076302E-1,1.224149680E0,1.836256992E0
1.355983717E1,7.417830402E-1,-6.996216917E-1,7.683511801E-1,1.276744346E0
1.356991717E1,5.164173156E-1,-6.548969239E-1,6.379967165E-1,1.050055539E0
1.357999717E1,4.283640951E-1,-7.294714352E-1,2.119660990E-1,8.720974716E-1
1.359007717E1,2.416513896E-1,-9.503912294E-1,-3.935641719E-1,1.056660608E0
1.360015771E1,2.840916502E-1,-1.060583470E0,-5.851518472E-1,1.244165603E0
1.361023771E1,2.989225280E-1,-1.278962357E0,-6.404618295E-1,1.461263406E0
1.362031771E1,2.583241403E-1,-1.488118722E0,-5.623360848E-1,1.611660810E0
1.363039671E1,2.517547935E-1,-1.629166135E0,-5.232591426E-1,1.729555695E0
1.364047671E1,1.990930152E-1,-1.763744482E0,-6.727619950E-1,1.898167887E0
1.365055671E1,1.503020936E-1,-2.061713621E0,-8.198673427E-1,2.223833680E0
1.366063671E1,-5.098772049E-3,-2.540960771E0,-1.402985601E0,2.902563735E0
1.367071671E1,-2.208119130E-1,-2.947297820E0,-2.047243516E0,3.595348155E0
1.368079671E1,-1.621491373E-1,-3.060451384E0,-2.241659929E0,3.797063899E0
1.369087671E1,1.902274668E-1,-2.719945212E0,-1.964432909E0,3.360548333E0
1.370095671E1,2.996914369E-1,-2.162023190E0,-1.661758808E0,2.743282991E0
1.371103671E1,9.151477218E-2,-1.735365313E0,-1.299042572E0,2.169649586E0
1.372111671E1,-2.298715889E-1,-1.892737275E0,-9.461484897E-1,2.128495314E0
1.373119671E1,-7.459819257E-1,-2.391715270E0,-1.080178952E0,2.728292054E0
1.374127571E1,-1.571701747E0,-2.396760247E0,-1.279356751E0,3.138703516E0
1.375135571E1,-2.206574296E0,-1.933794669E0,-1.301634058E0,3.209794879E0
1.376143571E1,-2.186568047E0,-1.331460705E0,-1.477324762E0,2.955732716E0
1.377151571E1,-1.949535958E0,-1.203027783E0,-1.583188602E0,2.784681750E0
1.378159571E1,-1.962402171E0,-1.935780383E0,-1.528309559E0,3.151824564E0
1.379167571E1,-1.846461241E0,-2.646706497E0,-1.450421138E0,3.538106255E0
1.380175571E1,-1.513474588E0,-2.628591238E0,-1.386344426E0,3.334973477E0
1.381183571E1,-1.409278375E0,-2.212198148E0,-1.491059287E0,3.017141691E0
1.382191571E1,-1.683841403E0,-1.794935576E0,-1.532066395E0,2.899024497E0
1.383199571E1,-2.164638650E0,-1.310389094E0,-1.157779689E0,2.782666684E0
1.384207571E1,-2.809526895E0,-9.065587467E-1,-5.128751089E-1,2.996386325E0
1.385215471E1,-3.347284209E0,-6.777408260E-1,-1.524957497E-2,3.415241829E0
1.386223471E1,-3.225018929E0,5.397915602E-2,7.381872218E-2,3.226315243E0
1.387231471E1,-2.686869852E0,1.035012134E0,-2.291827869E-1,2.888432874E0
1.388239471E1,-2.492330064E0,4.897581053E-1,-3.149392211E-1,2.559445030E0
1.389247471E1,-2.801947149E0,-5.780767894E-1,-7.388073921E-2,2.861911767E0
1.390255471E1,-2.817974367E0,-9.374074870E-1,1.108292949E-1,2.971867336E0
1.391263471E1,-1.939657087E0,-5.883281279E-1,6.210327744E-1,2.119924836E0
1.392271471E1,-1.134512449E0,5.336437976E-1,1.366186734E0,1.854281638E0
1.393279471E1,-9.199710900E-1,2.383885556E0,2.136331694E0,3.330641118E0
1.394287471E1,-1.081402189E0,4.103658683E0,2.289287839E0,4.821854839E0
1.395295471E1,-1.522668166E0,5.043992994E0,1.706339149E0,5.538228684E0
1.396303471E1,-2.447608219E0,5.000385629E0,6.042454183E-1,5.599978121E0
1.397311371E1,-3.327786083E0,4.391337600E0,-1.123484015E-2,5.509821445E0
1.398319371E1,-4.049321970E0,3.159953745E0,-6.412746656E-1,5.176248572E0
1.399327371E1,-4.364748849E0,1.967942116E0,-1.355867422E0,4.976163698E0
1.400335371E1,-4.075177773E0,9.660398403E-1,-1.814705597E0,4.564368878E0
1.401343371E1,-3.438227708E0,2.191124198E-1,-1.650497363E0,3.820152035E0
1.402351371E1,-2.678190830E0,3.235439837E-2,-7.622781157E-1,2.784747898E0
1.403359371E1,-1.665566515E0,3.002603710E-2,-6.511430115E-2,1.667109250E0
1.404367371E1,-5.180071735E-1,-1.963483322E-1,4.182023652E-1,6.941018064E-1
1.405375371E1,4.037531644E-1,-4.847862178E-1,6.722672474E-1,9.219422687E-1
1.406383371E1,1.054537157E0,-1.788467386E-1,7.933244920E-1,1.331690099E0
1.407391371E1,1.744703901E0,5.637028715E-1,1.122144711E0,2.149642152E0
1.408399271E1,2.208502123E0,8.363155603E-1,1.580218509E0,2.841477763E0
1.409407271E1,2.468101541E0,7.264259130E-1,1.997056865E0,3.256908955E0
1.410415271E1,2.688796510E0,4.672901791E-1,2.418235316E0,3.646347327E0
1.411423271E1,2.836584885E0,3.573443985E-1,3.041507282E0,4.174287409E0
1.412431271E1,3.012617651E0,1.759713703E-1,3.396363690E0,4.543359699E0
1.413439271E1,3.285307231E0,-2.910980764E-1,3.142940686E0,4.555881676E0
1.414447271E1,3.533741975E0,-5.359321055E-1,2.855319072E0,4.574647809E0
1.415455271E1,3.842548052E0,-7.862698263E-1,3.046256391E0,4.966193086E0
1.416463271E1,3.869503716E0,-9.699650761E-1,3.349374880E0,5.208858162E0
1.417471271E1,3.819420560E0,-7.641930789E-1,3.243119570E0,5.068509546E0
1.418479271E1,3.839965922E0,-4.896081242E-1,2.924507420E0,4.851576862E0
1.419487271E1,4.038514561E0,-1.534762546E-1,2.883657895E0,4.964739437E0
1.420495171E1,4.443856414E0,5.954482824E-2,2.974792013E0,5.347970918E0
1.421503171E1,4.915110421E0,9.922344893E-2,2.947373250E0,5.731942499E0
1.422511171E1,5.254561170E0,1.376171440E-2,2.689635293E0,5.902943374E0
1.423519171E1,5.341056692E0,-2.260980883E-1,2.047319238E0,5.724467049E0
1.424527171E1,5.145763782E0,-7.079744393E-1,1.106884940E0,5.310866876E0
1.425535171E1,4.711271220E0,-1.327137859E0,2.168217731E-1,4.899426812E0
1.426543171E1,3.927851912E0,-1.931282997E0,-1.015266672E-1,4.378148275E0
1.427551171E1,2.468967513E0,-2.393849796E0,1.457719633E-1,3.442029473E0
1.428559171E1,6.707732838E-1,-2.399088316E0,5.142743111E-2,2.491627245E0
1.429567171E1,-1.219542074E0,-9.990248609E-1,-1.336591345E0,2.066835738E0
1.430575171E1,-3.222392360E0,1.560255822E0,-3.298970127E0,4.868409869E0
1.431583171E1,-4.500605981E0,3.024278461E0,-4.350043101E0,6.951588983E0
1.432591071E1,-5.346689315E0,2.852055156E0,-3.129030745E0,6.819980839E0
1.433599071E1,-6.455403264E0,2.628264087E0,-3.391419869E0,7.751240684E0
1.434607071E1,-7.883895589E0,3.155217792E0,-6.579826165E0,1.074268688E1
1.435615071E1,-7.890331619E0,2.415200611E0,-7.866443989E0,1.140050298E1
1.436623071E1,-4.092329995E0,-1.052454963E0,-4.724718647E0,6.338595470E0
1.437631071E1,-5.228662097E-1,-4.263661015E0,-2.034053367E0,4.752848349E0
1.438639071E1,1.112163221E0,-6.153194600E0,-1.620082778E0,6.459363671E0
1.439647071E1,1.711834363E0,-7.163484707E0,-2.100704024E0,7.658906412E0
1.440655071E1,2.088128418E0,-7.148851465E0,-2.084579158E0,7.733810692E0
1.441663071E1,2.843244279E0,-5.710965003E0,-1.162918515E0,6.484715781E0
1.442671071E1,2.892224650E0,-3.096651496E0,-1.030046386E0,4.360643241E0
1.443679071E1,1.164464226E0,-5.880933622E-1,-1.110865724E-1,1.309263520E0
1.444686971E1,-9.231525600E-1,2.279521819E0,2.454151838E0,3.474376436E0
1.445694971E1,-2.606363048E0,6.170478970E0,4.899893627E0,8.299210601E0
1.446702971E1,-3.336644030E0,9.115791661E0,6.125550134E0,1.147838035E1
1.447710971E1,-3.705196956E0,9.933750472E0,3.119299808E0,1.105160234E1
1.448718971E1,-4.252070664E0,9.106495757E0,-3.310918036E0,1.058161368E1
1.449726971E1,-3.615376707E0,7.216603153E0,-3.048093293E0,8.627930373E0
1.450734971E1,-2.097133130E-1,4.056464051E0,1.022947867E0,4.188711331E0
1.451742971E1,2.865085968E0,2.047225098E0,1.577429679E-1,3.524873196E0
1.452750971E1,3.820114040E0,6.844320872E-1,1.317075385E0,4.098341876E0
1.453758971E1,3.447701367E0,-7.307911518E-1,4.179166410E0,5.466821042E0
1.454766971E1,2.763191804E0,-6.390749431E-1,5.681554093E0,6.350094695E0
1.455774971E1,1.734771820E0,1.605337562E0,6.133336287E0,6.573002051E0
1.456782871E1,6.367237777E-1,3.437366998E0,5.510089756E0,6.525488347E0
1.457790871E1,-5.096246052E-1,3.640155161E0,3.946413021E0,5.393016091E0
1.458798871E1,-2.280358556E0,2.592592270E0,2.838342266E0,4.469648380E0
1.459806883E1,-4.163211113E0,9.086532193E-1,2.155038984E0,4.775161826E0
1.460814883E1,-5.014952213E0,-6.632023090E-1,1.339801174E0,5.233034510E0
1.461822883E1,-3.917485968E0,-1.655236824E0,7.370473802E-1,4.316218726E0
1.462830883E1,-1.607256326E0,-1.388453224E0,6.026272014E-1,2.207766925E0
1.463838883E1,5.666776425E-1,-2.094045800E-1,7.777688518E-1,9.848341055E-1
1.464846883E1,2.207973534E0,9.004527918E-1,1.048741543E0,2.604960879E0
1.465854883E1,3.285770330E0,1.373734613E0,1.364303054E0,3.813758812E0
1.466862883E1,4.181567861E0,1.417383785E0,1.903957497E0,4.808278353E0
1.467870883E1,4.564666906E0,1.151191339E0,1.602899712E0,4.972998386E0
1.468878883E1,4.074539257E0,3.573137006E-1,1.530505189E0,4.367148883E0
1.469886783E1,3.061399802E0,-2.246204969E-1,1.532989086E0,3.431133727E0
1.470894783E1,2.020486658E0,-3.757037786E-1,1.097392716E0,2.329761884E0
1.471902783E1,1.365883264E0,-1.559104505E-1,7.462684393E-1,1.564244784E0
1.472910783E1,1.094863649E0,-6.119111180E-4,7.337412183E-1,1.317992018E0
1.473918783E1,9.677820182E-1,-1.839358628E-2,6.496865431E-1,1.165775692E0
1.474926783E1,7.753945899E-1,-2.711301273E-1,3.752100543E-1,9.030674952E-1
1.475934783E1,4.302889985E-1,-6.109293705E-1,-9.225378715E-2,7.529236875E-1
1.476942783E1,9.294441640E-2,-8.536259499E-1,-4.729051872E-1,9.802832463E-1
1.477950783E1,-5.371603131E-2,-1.165268219E0,-5.438880464E-1,1.287070177E0
1.478958783E1,-1.762222159E-1,-1.458859255E0,-3.851818228E-1,1.519108170E0
1.479966783E1,-1.448086345E-1,-1.817428645E0,-4.596168415E-1,1.880229790E0
1.480974783E1,-5.430660009E-2,-2.349579064E0,-9.455859876E-1,2.533299004E0
1.481982683E1,-5.877796590E-2,-2.685655970E0,-1.389395503E0,3.024338391E0
1.482990683E1,-1.650540340E-1,-2.672468160E0,-1.557687725E0,3.097695909E0
1.483998683E1,-1.841200501E-1,-2.581582548E0,-1.883087030E0,3.200700768E0
1.485006683E1,-2.480213463E-1,-2.272974692E0,-1.928405290E0,2.991099380E0
1.486014683E1,-3.413540179E-1,-1.930885094E0,-1.685600830E0,2.585747468E0
1.487022683E1,-6.296176565E-1,-1.816153368E0,-1.410522662E0,2.384199159E0
1.488030683E1,-1.242184247E0,-2.117507168E0,-1.509319557E0,2.881823006E0
1.489038683E1,-1.623299332E0,-2.384116813E0,-1.907992076E0,3.458257865E0
1.490046683E1,-1.818555989E0,-2.536184766E0,-2.306711372E0,3.880759771E0
1.491054683E1,-2.298132922E0,-2.605200037E0,-2.456686022E0,4.254854682E0
1.492062683E1,-2.711693037E0,-2.529851062E0,-1.956680086E0,4.193092234E0
1.493070683E1,-2.535463219E0,-2.322569606E0,-1.792486762E0,3.877616807E0
1.494078683E1,-2.243227567E0,-2.570294498E0,-1.788135265E0,3.851741353E0
1.495086583E1,-2.135818309E0,-3.447071621E0,-1.677719952E0,4.388481155E0
1.496094583E1,-1.832831381E0,-3.952441208E0,-1.592252955E0,4.638570022E0
1.497102583E1,-1.499065880E0,-3.723196440E0,-1.335422194E0,4.229981404E0
1.498110583E1,-1.651882861E0,-2.999675424E0,-1.324984914E0,3.671832602E0
1.499118583E1,-2.426043688E0,-2.287883338E0,-1.737988958E0,3.760412712E0
1.500126583E1,-3.255930820E0,-1.741435307E0,-1.577782266E0,4.015355440E0
1.501134583E1,-3.825844896E0,-9.099618262E-1,-3.308961996E-1,3.946468293E0
1.502142583E1,-3.751180630E0,2.897482467E-1,7.083580166E-1,3.828456770E0
1.503150583E1,-3.290975522E0,1.425286297E0,3.941689932E-1,3.607953729E0
1.504158583E1,-3.070294002E0,1.285334945E0,3.208483442E-1,3.343910112E0
1.505166583E1,-3.274605657E0,3.652258605E-1,4.901656562E-1,3.331170141E0
1.506174583E1,-3.228395696E0,-1.375189108E-1,6.740237510E-1,3.300872345E0
1.507182583E1,-2.583719121E0,5.133954746E-1,1.278670288E0,2.928169584E0
1.508190483E1,-1.730255431E0,2.192032270E0,1.678559028E0,3.258274043E0
1.509198483E1,-9.857160133E-1,4.161885549E0,1.515253311E0,4.537501513E0
1.510206483E1,-8.333089221E-1,5.556333046E0,1.225425689E0,5.750557260E0
1.511214483E1,-1.344418135E0,5.990533247E0,9.354973479E-1,6.210402885E0
1.512222483E1,-2.402743703E0,5.636408325E0,4.026123726E-1,6.140388655E0
1.513230483E1,-3.268594719E0,4.742853202E0,2.438851722E-1,5.765227481E0
1.514238483E1,-3.852217593E0,3.298226069E0,-5.217562620E-1,5.098049154E0
1.515246483E1,-3.696312697E0,2.166445732E0,-1.505756410E0,4.541312258E0
1.516254483E1,-3.224855792E0,1.415914380E0,-1.559386780E0,3.851778231E0
1.517262483E1,-2.799632236E0,9.658743641E-1,-9.329828990E-1,3.105046060E0
1.518270483E1,-2.098266320E0,8.071519876E-1,-6.608523130E-2,2.249129418E0
1.519278483E1,-1.190364468E0,6.081455112E-1,3.401000825E-1,1.379302938E0
1.520286483E1,-2.571318930E-1,1.862431741E-1,3.394206360E-2,3.193045474E-1
1.521294383E1,5.277895653E-1,1.229739618E-1,3.648279575E-1,6.532869653E-1
1.522302383E1,1.316004760E0,4.346820116E-1,6.600796035E-1,1.535096760E0
1.523310383E1,1.873895207E0,6.687896159E-1,8.180304399E-1,2.151263954E0
1.524318383E1,2.114259040E0,6.898963103E-1,1.325870475E0,2.589204651E0
1.525326383E1,2.428144593E0,5.274705997E-1,1.972006808E0,3.172210940E0
1.526334383E1,2.714947012E0,5.278807819E-2,2.289414431E0,3.551780159E0
1.527342383E1,2.883862547E0,-3.477575961E-1,2.778020635E0,4.019327952E0
1.528350383E1,3.117268778E0,-7.538417530E-1,3.490657936E0,4.740288478E0
1.529358383E1,3.519779409E0,-1.274379309E0,3.698341681E0,5.262187844E0
1.530366383E1,3.811691710E0,-1.528142621E0,3.677904493E0,5.512820968E0
1.531374383E1,4.000201265E0,-1.437094749E0,3.734894965E0,5.658294078E0
1.532382383E1,4.217901290E0,-1.203953105E0,3.484111394E0,5.601716395E0
1.533390383E1,4.391786959E0,-8.093321219E-1,3.179886611E0,5.482197555E0
1.534398283E1,4.586531399E0,-5.997608963E-1,2.960362254E0,5.491787331E0
1.535406283E1,4.923013517E0,-6.015440047E-1,3.068828397E0,5.832291575E0
1.536414283E1,5.393394535E0,-4.870563993E-1,3.320251946E0,6.352165105E0
1.537422283E1,5.798269780E0,-5.269002038E-1,3.277611126E0,6.681339009E0
1.538430283E1,5.911160218E0,-8.984027579E-1,2.660925171E0,6.544422466E0
1.539438283E1,5.770413644E0,-1.523363984E0,1.764790841E0,6.223567961E0
1.540446283E1,5.549430408E0,-2.174119325E0,6.122058177E-1,5.991474665E0
1.541454283E1,5.083705528E0,-2.464741438E0,-1.003428984E0,5.738107875E0
1.542462283E1,4.210445505E0,-2.743641931E0,-2.347570838E0,5.546756821E0
1.543470283E1,2.531902265E0,-3.304270628E0,-2.424231344E0,4.817222340E0
1.544478283E1,-1.930282831E-1,-3.299720618E0,-1.408935728E0,3.593120643E0
1.545486283E1,-3.325582268E0,-1.796656120E0,-1.331899831E0,4.007671118E0
1.546494283E1,-5.827529247E0,1.139112453E0,-1.325353581E0,6.083932644E0
1.547502183E1,-7.135092382E0,4.773486472E0,-1.689994720E0,8.749388467E0
1.548510183E1,-7.788317587E0,6.889306426E0,-3.664362049E0,1.102488018E1
1.549518183E1,-7.883897343E0,7.360670360E0,-9.449156628E0,1.433952114E1
1.550526183E1,-7.349303958E0,5.578837810E0,-1.174115290E1,1.493286213E1
1.551534183E1,-4.161896659E0,3.575051969E-1,-6.553634148E0,7.771699576E0
1.552542183E1,-2.406193560E-1,-3.819726369E0,-1.789549121E0,4.225008079E0
1.553550183E1,2.555899238E0,-6.392825192E0,5.190859848E-1,6.904367104E0
1.554558183E1,3.977398294E0,-7.382070000E0,1.131364893E0,8.461361663E0
1.555566183E1,3.203485973E0,-5.007616296E0,-4.868122780E-1,5.964522574E0
1.556574183E1,-1.464025855E-1,-1.130684277E0,-9.664739960E-1,1.494641307E0
1.557582183E1,-3.560027549E0,2.101365637E0,8.976569456E-1,4.230286241E0
1.558590183E1,-5.588751179E0,6.053675575E0,1.888381976E0,8.452639481E0
1.559598183E1,-6.152820963E0,8.793317717E0,2.204889713E0,1.095633063E1
1.560606204E1,-4.520883540E0,5.792883909E0,2.940084695E0,7.914542942E0
1.561614104E1,-4.862199551E-1,3.458883582E0,4.130590081E-1,3.517229481E0
1.562622104E1,2.672384545E0,3.857263447E0,-2.136932496E0,5.156219637E0
1.563630104E1,3.920829406E0,2.888404372E0,-2.377460343E-1,4.875685205E0
1.564638104E1,3.628261047E0,5.141202369E-1,2.897868968E0,4.671856419E0
1.565646104E1,1.890396634E0,-1.009350459E0,5.009678024E0,5.448785341E0
1.566654104E1,8.464078546E-2,-3.638672599E-1,5.228032937E0,5.241363547E0
1.567662104E1,-1.203633555E0,2.215629586E0,4.851706722E0,5.467797209E0
1.568670104E1,-1.908745782E0,4.418188891E0,4.176098961E0,6.372088046E0
1.569678104E1,-2.030227534E0,4.647855828E0,3.483521117E0,6.152991712E0
1.570686104E1,-2.175930793E0,3.908020788E0,3.331362240E0,5.577210384E0
1.571694104E1,-2.608583236E0,2.409981387E0,3.164197654E0,4.756560057E0
1.572702104E1,-2.812871502E0,6.677184060E-1,2.721507296E0,3.970478046E0
1.573710104E1,-2.338162376E0,-3.908506984E-1,1.990265031E0,3.095306521E0
1.574718004E1,-1.090458941E0,-5.182580191E-1,1.517199557E0,1.938965336E0
1.575726004E1,5.055128431E-1,-2.181596160E-2,1.381649112E0,1.471384871E0
1.576734004E1,1.763436041E0,6.671497643E-1,1.348659998E0,2.318119770E0
1.577742004E1,2.534042346E0,1.028673460E0,1.507938152E0,3.123046136E0
1.578750004E1,2.996747139E0,1.189730922E0,1.976335209E0,3.781779203E0
1.579758004E1,3.426638526E0,1.125083229E0,2.338968999E0,4.298655585E0
1.580766004E1,3.833361492E0,6.993632448E-1,2.053436595E0,4.404585238E0
1.581774004E1,3.306918540E0,-3.170570827E-1,1.429193699E0,3.616466515E0
1.582782004E1,2.338599163E0,-7.543346733E-1,1.335900789E0,2.796908608E0
1.583790004E1,1.389535251E0,-7.606131211E-1,1.247739541E0,2.016480720E0
1.584798004E1,8.048785901E-1,-9.001592615E-1,9.848933101E-1,1.558246153E0
1.585806004E1,4.350878084E-1,-9.757128891E-1,6.431647781E-1,1.246987560E0
1.586814004E1,3.514246774E-1,-1.042952068E0,2.606617109E-1,1.131014080E0
1.587822004E1,3.995496011E-1,-1.183430840E0,-2.020493674E-1,1.265295374E0
1.588830004E1,4.002974600E-1,-1.350394867E0,-4.652968633E-1,1.483342686E0
1.589837904E1,3.135265338E-1,-1.421393806E0,-3.822547066E-1,1.504917904E0
1.590845904E1,3.404699188E-1,-1.537880282E0,-1.794007623E-1,1.585301284E0
1.591853904E1,1.556838709E-1,-1.713417789E0,-1.971364637E-1,1.731733459E0
1.592861904E1,-1.508189875E-1,-1.864021599E0,-3.801883006E-1,1.908367373E0
1.593869904E1,-2.266404176E-1,-2.180167100E0,-8.030040459E-1,2.334375711E0
1.594877904E1,-2.341587675E-1,-2.438177830E0,-1.322566506E0,2.783652928E0
1.595885904E1,-3.970686275E-1,-2.620095234E0,-1.885422993E0,3.252288793E0
1.596893904E1,-3.838048035E-1,-2.686551763E0,-2.109750252E0,3.437428200E0
1.597901904E1,-3.060415131E-1,-2.453294637E0,-2.002149789E0,3.181339303E0
1.598909904E1,-2.501088023E-1,-2.129578160E0,-1.672550429E0,2.719390095E0
1.599917904E1,-2.632515889E-1,-1.968789085E0,-9.549818784E-1,2.203956045E0
1.600925904E1,-5.815722549E-1,-2.118755549E0,-5.262710434E-1,2.259272576E0
1.601933904E1,-1.301637567E0,-2.266261504E0,-8.689067709E-1,2.754124277E0
1.602941904E1,-2.083299787E0,-2.001224760E0,-1.194712458E0,3.126080037E0
1.603949804E1,-2.135025426E0,-1.551817705E0,-1.190450422E0,2.895452291E0
1.604957804E1,-1.884773952E0,-1.361568019E0,-1.156171120E0,2.596723316E0
1.605965804E1,-2.002384263E0,-2.264132532E0,-1.193245976E0,3.249565328E0
1.606973804E1,-2.546634325E0,-3.671030506E0,-1.402132493E0,4.682711489E0
1.607981804E1,-2.629018085E0,-4.394346870E0,-1.598828149E0,5.364538373E0
1.608989804E1,-2.668616599E0,-4.306105953E0,-1.575695395E0,5.305363231E0
1.609997804E1,-3.040369706E0,-3.776704311E0,-1.485550041E0,5.070917306E0
1.611005804E1,-3.322721810E0,-3.227263091E0,-1.429751231E0,4.847669117E0
1.612013804E1,-3.475797822E0,-2.487278069E0,-1.194810691E0,4.437938179E0
1.613021804E1,-3.766375204E0,-1.503831360E0,-9.142706394E-2,4.056531751E0
1.614029804E1,-3.976655113E0,1.791832459E-1,9.787338531E-1,4.099245354E0
1.615037804E1,-3.813124278E0,2.116423679E0,8.787797946E-1,4.448754868E0
1.616045804E1,-4.181381335E0,2.490329146E0,3.771009707E-1,4.881382414E0
1.617053804E1,-4.414167761E0,1.490804933E0,3.054608846E-1,4.669120123E0
1.618061704E1,-3.837041729E0,8.965009511E-1,9.687456393E-1,4.057717499E0
1.619069704E1,-2.845615910E0,1.476998488E0,1.633883961E0,3.598420659E0
1.620077704E1,-1.369806746E0,3.125118080E0,1.604734422E0,3.770663881E0
1.621085704E1,9.455181599E-2,4.611877325E0,1.336220924E0,4.802482573E0
1.622093704E1,8.884019727E-1,5.335060957E0,1.460738550E0,5.602311183E0
1.623101704E1,1.064517184E0,5.319275229E0,1.200208840E0,5.555932600E0
1.624109704E1,3.483525503E-1,4.602106920E0,5.754269774E-1,4.651005677E0
1.625117704E1,-9.729410166E-1,3.490480473E0,7.277225330E-2,3.624274266E0
1.626125704E1,-1.760486121E0,2.427707221E0,-4.528645134E-1,3.032846847E0
1.627133704E1,-2.041892729E0,1.662738509E0,-8.653212583E-1,2.771787536E0
1.628141704E1,-2.187549795E0,1.038885622E0,-8.948834650E-1,2.581757901E0
1.629149704E1,-2.224170907E0,7.916931188E-1,-4.578649060E-1,2.404860596E0
1.630157704E1,-1.896743787E0,7.796393761E-1,-4.413683027E-2,2.051200285E0
1.631165704E1,-1.248392821E0,6.281596532E-1,4.735943547E-1,1.475588289E0
1.632173704E1,-5.928193742E-1,1.518530676E-1,5.748584819E-1,8.396168404E-1
1.633181604E1,-2.414081454E-2,-1.979770741E-1,4.827883704E-1,5.223622415E-1
1.634189604E1,8.702305806E-1,-2.596926811E-1,8.491993153E-1,1.243334641E0
1.635197604E1,1.903758692E0,-3.724597433E-1,7.247600412E-1,2.070821222E0
1.636205604E1,2.391419985E0,-2.996633703E-1,6.648193565E-1,2.500134488E0
1.637213604E1,2.633025767E0,-4.207217842E-2,1.382957718E0,2.974418734E0
1.638221604E1,2.734340472E0,-1.324534678E-1,1.862845724E0,3.311246884E0
1.639229604E1,2.762368516E0,-3.372326079E-1,2.180721709E0,3.535527234E0
1.640237604E1,2.840573271E0,-5.670957184E-1,2.633886769E0,3.915075168E0
1.641245604E1,2.913779826E0,-6.762518325E-1,2.974757222E0,4.218602843E0
1.642253604E1,3.064825686E0,-7.320664296E-1,3.019767627E0,4.364409955E0
1.643261604E1,3.178796690E0,-6.275953969E-1,2.959775779E0,4.388495988E0
1.644269604E1,3.273660747E0,-2.933439919E-1,2.851721572E0,4.351461974E0
1.645277604E1,3.319395913E0,4.079690069E-2,2.615558964E0,4.226251567E0
1.646285604E1,3.311085851E0,2.577502361E-1,2.317538369E0,4.049778856E0
1.647293604E1,3.447806032E0,4.612295401E-1,2.278843835E0,4.158512756E0
1.648301504E1,3.805415309E0,3.885919189E-1,2.416688143E0,4.524662522E0
1.649309504E1,4.359395723E0,1.940494993E-1,2.535286049E0,5.046747628E0
1.650317504E1,4.931506013E0,-1.180093834E-1,2.443889683E0,5.505113491E0
1.651325504E1,5.149397827E0,-5.681201506E-1,2.042785892E0,5.568844825E0
1.652333504E1,4.980046089E0,-1.172778967E0,1.258009152E0,5.268667439E0
1.653341504E1,4.622835592E0,-1.769535272E0,3.949966666E-1,4.965670786E0
1.654349504E1,3.946051371E0,-2.229495673E0,-1.138736477E-1,4.533755572E0
1.655357504E1,2.820986853E0,-2.527872072E0,-5.495768756E-2,3.788287790E0
1.656365504E1,1.192672949E0,-2.326358017E0,1.627113470E-1,2.619329183E0
1.657373504E1,-6.928137785E-1,-1.169679650E0,-1.093693329E0,1.744794118E0
1.658381504E1,-2.382936260E0,6.878822368E-1,-3.507004120E0,4.295421410E0
1.659389504E1,-3.433103208E0,1.895951489E0,-4.721194822E0,6.137630670E0
1.660397858E1,-4.294377024E0,1.966575622E0,-2.582200891E0,5.383015432E0
1.661405858E1,-5.249947717E0,1.798789184E0,-1.437186550E0,5.732634537E0
1.662413758E1,-6.620818655E0,2.319668802E0,-5.005199057E0,8.617895371E0
